sep=;
ACCELERATION X;ACCELERATION Y;ACCELERATION Z;LINEAR_ACCELERATION X;LINEAR_ACCELERATION Y;LINEAR_ACCELERATION Z;GRAVITY X;GRAVITY Y;GRAVITY Z;GYROSCOPE X;GYROSCOPE Y;GYROSCOPE Z;Data
0.028431;0.19827;9.84585;-0.044592;0.00808;0.04145;0.073023;0.190189;9.80441;-0.000832;-0.001099;-0.000166;2014-09-09 18:27:28:100
-0.311545;-0.41704;13.9567;-0.38397;-0.607828;4.15229;0.072425;0.190788;9.80441;-0.535595;1.51264;0.062684;2014-09-09 18:27:28:700
5.20948;-3.77132;4.60495;8.07295;-3.08403;-4.74905;-2.86347;-0.687286;9.354;-0.763713;-3.77847;-0.537031;2014-09-09 18:27:29:100
3.28694;-3.85033;7.6815;-2.16316;-0.477793;0.259172;5.4501;-3.37253;7.42233;0.778763;1.90153;0.137287;2014-09-09 18:27:29:700
0.030825;0.210241;9.9105;0.449362;0.392948;0.114622;-0.418536;-0.182708;9.79588;-0.011669;-0.046839;-0.000131;2014-09-09 18:27:30:100
-0.021847;0.267702;9.86501;-0.108936;0.144251;0.059556;0.087089;0.123451;9.80545;-0.002063;-0.002104;0.000931;2014-09-09 18:27:30:700
0.018854;0.274884;9.95359;-0.05776;0.12794;0.148441;0.076614;0.146944;9.80515;0.002206;-0.005303;0.003059;2014-09-09 18:27:31:100
0.004489;0.227;9.91768;-0.067337;0.07033;0.112677;0.071826;0.156671;9.805;0.001141;2.3e-005;-0.000136;2014-09-09 18:27:31:700
-0.009876;0.234183;9.92965;-0.075866;0.0621;0.124798;0.06599;0.172083;9.80485;-0.002031;1.5e-005;0.000924;2014-09-09 18:27:32:100
0.026037;0.210241;10.0039;-0.038307;0.030227;0.199168;0.064344;0.180014;9.8047;-0.002031;-0.004246;0.000924;2014-09-09 18:27:32:700
0.030825;0.231789;9.89613;-0.032022;0.046088;0.091578;0.062848;0.1857;9.80455;0.001212;-0.001068;-0.00015;2014-09-09 18:27:33:100
-0.019453;0.262913;9.84825;-0.080804;0.07003;0.043694;0.061351;0.192883;9.80455;0.002307;-0.001078;0.001975;2014-09-09 18:27:33:700
0.021249;0.238971;9.87698;-0.034117;0.037709;0.072574;0.055366;0.201263;9.80441;0.000227;-0.001096;-0.000166;2014-09-09 18:27:34:100
0.009278;0.231789;9.83867;-0.045639;0.026187;0.034417;0.054917;0.205602;9.80425;-0.002969;0.002099;-0.000166;2014-09-09 18:27:34:700
-0.007482;0.234183;9.87938;-0.064344;0.021099;0.075268;0.056862;0.213084;9.80411;0.000227;0.001034;0.0009;2014-09-09 18:27:35:100
-0.009876;0.246154;9.88416;-0.065841;0.028581;0.080206;0.055964;0.217573;9.80396;-0.000788;-4.9e-005;0.00089;2014-09-09 18:27:35:700
-0.017059;0.234183;9.84585;-0.070629;0.010175;0.042048;0.05357;0.224008;9.80381;0.000322;-0.002196;0.001947;2014-09-09 18:27:36:100
0.004489;0.224606;9.8674;-0.046088;-0.004339;0.063596;0.050578;0.228946;9.80381;-0.001782;-0.003271;0.000876;2014-09-09 18:27:36:700
-0.041001;0.219818;9.85064;-0.089483;-0.013318;0.046986;0.048483;0.233135;9.80366;0.00486;-0.002896;-0.001931;2014-09-09 18:27:37:100
-0.000299;0.212635;9.88177;-0.034866;-0.022146;0.078111;0.034566;0.234781;9.80366;0.000599;-0.000766;-0.000866;2014-09-09 18:27:37:700
-0.033818;0.200664;9.89613;-0.057461;-0.038008;0.092476;0.023643;0.238672;9.80366;0.000599;0.003495;0.0002;2014-09-09 18:27:38:100
-0.002693;0.229394;9.86022;-0.018405;-0.008529;0.056563;0.015712;0.237924;9.80366;0.001664;0.0003;0.001265;2014-09-09 18:27:38:700
0.002095;0.229394;9.86501;-0.004788;-0.00808;0.061351;0.006883;0.237475;9.80366;-0.002597;0.001365;-0.000866;2014-09-09 18:27:39:100
0.023643;0.222212;9.83867;0.0208;-0.013018;0.034866;0.002843;0.23523;9.80381;-0.000466;0.003495;0.0002;2014-09-09 18:27:39:700
-0.007482;0.248548;9.87938;-0.005387;0.011672;0.075717;-0.002095;0.236876;9.80366;0.000599;0.001365;-0.001931;2014-09-09 18:27:40:100
0.009278;0.210241;9.84107;0.013767;-0.025588;0.03726;-0.004489;0.235829;9.80381;0.001664;0.0003;0.001265;2014-09-09 18:27:40:700
0.006883;0.229394;9.81712;0.015712;-0.00419;0.013318;-0.008829;0.233584;9.80381;-0.001531;0.0003;0.0002;2014-09-09 18:27:41:100
0.01646;0.231789;9.81712;0.026935;-0.003741;0.013318;-0.010475;0.23553;9.80381;0.000599;0.004561;-0.001931;2014-09-09 18:27:41:700
-0.052972;0.238971;9.87698;-0.036362;0.001496;0.073322;-0.01661;0.237475;9.80366;-0.000466;0.0003;-0.000866;2014-09-09 18:27:42:100
-0.021847;0.222212;9.89853;-0.002544;-0.017657;0.09487;-0.019303;0.239869;9.80366;-0.001531;0.0003;-0.000866;2014-09-09 18:27:42:700
-0.017059;0.207847;9.86022;0.003591;-0.031424;0.056563;-0.02065;0.239271;9.80366;0.001664;0.000732;-0.000399;2014-09-09 18:27:43:100
0.004489;0.260519;9.87219;0.027833;0.025738;0.068384;-0.023343;0.234781;9.80381;0.00486;0.001798;-0.000399;2014-09-09 18:27:43:700
0.026037;0.224606;9.85064;0.046388;-0.01242;0.046986;-0.020351;0.237026;9.80366;0.001664;-0.002463;0.000666;2014-09-09 18:27:44:100
-0.02903;0.212635;9.86022;-0.008829;-0.025289;0.056563;-0.020201;0.237924;9.80366;-0.002597;0.003928;-0.000399;2014-09-09 18:27:44:700
-0.021847;0.217423;9.82431;-0.002993;-0.018705;0.02065;-0.018854;0.236128;9.80366;-0.001531;-0.002463;0.001731;2014-09-09 18:27:45:100
-0.009876;0.229394;9.91289;0.007183;-0.004938;0.109086;-0.017059;0.234332;9.80381;-0.000466;0.001798;-0.000399;2014-09-09 18:27:45:700
-0.024241;0.222212;9.80276;-0.007033;-0.009876;-0.001047;-0.017208;0.232088;9.80381;-0.001531;0.000732;-0.000399;2014-09-09 18:27:46:100
-0.002693;0.212635;9.8674;0.012719;-0.017358;0.063596;-0.015413;0.229993;9.80381;-0.000466;-0.001398;-0.000399;2014-09-09 18:27:46:700
-0.024241;0.205452;9.84825;-0.009278;-0.027533;0.044442;-0.014964;0.232986;9.80381;-0.000466;0.001798;-0.001465;2014-09-09 18:27:47:100
-0.000299;0.253336;9.85304;0.017059;0.020201;0.049231;-0.017358;0.233135;9.80381;-0.000466;0.000732;-0.000399;2014-09-09 18:27:47:700
0.006883;0.231789;9.93444;0.026336;-0.00419;0.130783;-0.019453;0.235978;9.80366;-0.002597;-0.000333;-0.000399;2014-09-09 18:27:48:100
-0.021847;0.236577;9.84825;-0.005537;0.000299;0.044592;-0.01631;0.236278;9.80366;0.001664;0.001798;0.000666;2014-09-09 18:27:48:700
0.042796;0.255731;10.0326;0.060304;0.022296;0.228796;-0.017508;0.233435;9.80381;0.000599;-0.003529;0.000666;2014-09-09 18:27:49:100
0.006883;0.231789;9.88895;0.024092;-0.002843;0.085144;-0.017208;0.234632;9.80381;0.000133;0.000766;-0.000366;2014-09-09 18:27:49:700
0.011672;0.186299;9.79318;0.030227;-0.042796;-0.010624;-0.018555;0.229095;9.80381;0.000133;-0.0003;0.000699;2014-09-09 18:27:50:100
-0.007482;0.234183;9.77403;0.008978;0.00808;-0.029928;-0.01646;0.226102;9.80396;0.001198;0.000766;0.001764;2014-09-09 18:27:50:700
0.014066;0.217423;9.85783;0.030227;-0.00808;0.05387;-0.016161;0.225504;9.80396;0.002264;-0.001365;0.000699;2014-09-09 18:27:51:100
0.006883;0.212635;9.9105;0.022146;-0.010175;0.106392;-0.015263;0.22281;9.80411;0.001198;-0.001365;0.000699;2014-09-09 18:27:51:700
-0.005088;0.229394;9.89853;0.011971;0.008829;0.094421;-0.017059;0.220566;9.80411;0.000133;-0.001365;0.001764;2014-09-09 18:27:52:100
-0.017059;0.195876;9.83628;0.003142;-0.023643;0.032172;-0.020201;0.219518;9.80411;0.000133;0.001831;-0.000366;2014-09-09 18:27:52:700
0.004489;0.215029;9.80276;0.02484;-0.003891;-0.001347;-0.020351;0.21892;9.80411;-0.000932;0.000766;0.001764;2014-09-09 18:27:53:100
-0.024241;0.241365;9.86261;-0.004639;0.025289;0.058508;-0.019603;0.216077;9.80411;0.001198;0.000766;0.000699;2014-09-09 18:27:53:700
-0.007482;0.205452;9.87938;0.013168;-0.009876;0.075118;-0.02065;0.215329;9.80425;0.002264;-0.0003;-0.000366;2014-09-09 18:27:54:100
0.002095;0.210241;9.83388;0.021099;-0.005986;0.029778;-0.019004;0.216226;9.80411;-0.001997;0.000766;0.000699;2014-09-09 18:27:54:700
-0.005088;0.219818;9.84825;0.011821;0.003741;0.043993;-0.016909;0.216077;9.80425;0.001198;-0.001365;0.001764;2014-09-09 18:27:55:100
-0.000299;0.207847;9.88895;0.014216;-0.008829;0.084845;-0.014515;0.216675;9.80411;0.000133;0.000766;0.000699;2014-09-09 18:27:55:700
-0.005088;0.248548;9.91289;0.009726;0.030825;0.108787;-0.014814;0.217723;9.80411;0.000932;-0.000266;0.000399;2014-09-09 18:27:56:100
-0.017059;0.227;9.83628;0.001646;0.011672;0.032022;-0.018705;0.215329;9.80425;0.001997;0.000799;0.000399;2014-09-09 18:27:56:700
0.009278;0.219818;9.8698;0.026935;0.004788;0.065541;-0.017657;0.215029;9.80425;-0.001198;0.001864;-0.000666;2014-09-09 18:27:57:100
0.018854;0.222212;9.93684;0.035763;0.005986;0.132729;-0.016909;0.216226;9.80411;0.000932;0.000799;-0.000666;2014-09-09 18:27:57:700
0.011672;0.248548;9.85543;0.027533;0.031723;0.051326;-0.015862;0.216825;9.80411;-0.001198;0.000799;0.000399;2014-09-09 18:27:58:100
-0.033818;0.231789;9.92965;-0.019453;0.016759;0.125396;-0.014365;0.215029;9.80425;0.000932;0.000799;0.000399;2014-09-09 18:27:58:700
-0.02903;0.253336;9.9105;-0.013467;0.035314;0.106392;-0.015562;0.218022;9.80411;-0.002264;0.000799;-0.000666;2014-09-09 18:27:59:100
-0.033818;0.253336;9.86261;-0.016011;0.034716;0.058508;-0.017807;0.218621;9.80411;-0.001198;0.000799;0.001465;2014-09-09 18:27:59:700
-0.031424;0.227;9.82191;-0.009876;0.007931;0.017807;-0.021548;0.219069;9.80411;-0.000133;0.001864;-0.001731;2014-09-09 18:28:00:100
-0.052972;0.236577;9.90332;-0.031723;0.019603;0.09921;-0.021249;0.216975;9.80411;0.003063;-0.007723;-0.000666;2014-09-09 18:28:00:700
-0.026635;0.24376;9.97275;-0.005387;0.030676;0.168492;-0.021249;0.213084;9.80425;0.000932;-0.004527;0.000399;2014-09-09 18:28:01:100
-0.017059;0.246154;9.81952;0.003292;0.030825;0.015263;-0.020351;0.215329;9.80425;-0.001198;-0.001332;-0.000666;2014-09-09 18:28:01:700
-0.017059;0.246154;9.81952;0.003292;0.030825;0.015263;-0.020351;0.215329;9.80425;-0.001198;-0.001332;-0.000666;2014-09-09 18:28:02:300
-0.017059;0.246154;9.81952;0.003292;0.030825;0.015263;-0.020351;0.215329;9.80425;-0.001198;-0.001332;-0.000666;2014-09-09 18:28:02:500
-0.017059;0.246154;9.81952;0.003292;0.030825;0.015263;-0.020351;0.215329;9.80425;-0.001198;-0.001332;-0.000666;2014-09-09 18:28:03:300
-0.017059;0.246154;9.81952;0.003292;0.030825;0.015263;-0.020351;0.215329;9.80425;-0.001198;-0.001332;-0.000666;2014-09-09 18:28:03:500
-0.017059;0.246154;9.81952;0.003292;0.030825;0.015263;-0.020351;0.215329;9.80425;-0.001198;-0.001332;-0.000666;2014-09-09 18:28:04:300
-0.017059;0.246154;9.81952;0.003292;0.030825;0.015263;-0.020351;0.215329;9.80425;-0.001198;-0.001332;-0.000666;2014-09-09 18:28:04:500
-0.017059;0.246154;9.81952;0.003292;0.030825;0.015263;-0.020351;0.215329;9.80425;-0.001198;-0.001332;-0.000666;2014-09-09 18:28:05:300
-0.017059;0.246154;9.81952;0.003292;0.030825;0.015263;-0.020351;0.215329;9.80425;-0.001198;-0.001332;-0.000666;2014-09-09 18:28:05:500
-0.017059;0.246154;9.81952;0.003292;0.030825;0.015263;-0.020351;0.215329;9.80425;-0.001198;-0.001332;-0.000666;2014-09-09 18:28:06:300
-0.017059;0.246154;9.81952;0.003292;0.030825;0.015263;-0.020351;0.215329;9.80425;-0.001198;-0.001332;-0.000666;2014-09-09 18:28:06:500
-0.017059;0.246154;9.81952;0.003292;0.030825;0.015263;-0.020351;0.215329;9.80425;-0.001198;-0.001332;-0.000666;2014-09-09 18:28:07:300
-0.017059;0.246154;9.81952;0.003292;0.030825;0.015263;-0.020351;0.215329;9.80425;-0.001198;-0.001332;-0.000666;2014-09-09 18:28:07:500
-0.017059;0.246154;9.81952;0.003292;0.030825;0.015263;-0.020351;0.215329;9.80425;-0.001198;-0.001332;-0.000666;2014-09-09 18:28:08:300
-0.017059;0.246154;9.81952;0.003292;0.030825;0.015263;-0.020351;0.215329;9.80425;-0.001198;-0.001332;-0.000666;2014-09-09 18:28:08:500
-0.017059;0.246154;9.81952;0.003292;0.030825;0.015263;-0.020351;0.215329;9.80425;-0.001198;-0.001332;-0.000666;2014-09-09 18:28:09:300
-0.017059;0.246154;9.81952;0.003292;0.030825;0.015263;-0.020351;0.215329;9.80425;-0.001198;-0.001332;-0.000666;2014-09-09 18:28:09:500
-0.017059;0.246154;9.81952;0.003292;0.030825;0.015263;-0.020351;0.215329;9.80425;-0.001198;-0.001332;-0.000666;2014-09-09 18:28:10:300
-0.017059;0.246154;9.81952;0.003292;0.030825;0.015263;-0.020351;0.215329;9.80425;-0.001198;-0.001332;-0.000666;2014-09-09 18:28:10:500
-0.017059;0.246154;9.81952;0.003292;0.030825;0.015263;-0.020351;0.215329;9.80425;-0.001198;-0.001332;-0.000666;2014-09-09 18:28:11:300
-0.017059;0.246154;9.81952;0.003292;0.030825;0.015263;-0.020351;0.215329;9.80425;-0.001198;-0.001332;-0.000666;2014-09-09 18:28:11:500
-0.017059;0.246154;9.81952;0.003292;0.030825;0.015263;-0.020351;0.215329;9.80425;-0.001198;-0.001332;-0.000666;2014-09-09 18:28:12:300
-0.017059;0.246154;9.81952;0.003292;0.030825;0.015263;-0.020351;0.215329;9.80425;-0.001198;-0.001332;-0.000666;2014-09-09 18:28:12:500
-0.017059;0.246154;9.81952;0.003292;0.030825;0.015263;-0.020351;0.215329;9.80425;-0.001198;-0.001332;-0.000666;2014-09-09 18:28:13:300
-0.017059;0.246154;9.81952;0.003292;0.030825;0.015263;-0.020351;0.215329;9.80425;-0.001198;-0.001332;-0.000666;2014-09-09 18:28:13:500
-0.017059;0.246154;9.81952;0.003292;0.030825;0.015263;-0.020351;0.215329;9.80425;-0.001198;-0.001332;-0.000666;2014-09-09 18:28:14:300
-0.017059;0.246154;9.81952;0.003292;0.030825;0.015263;-0.020351;0.215329;9.80425;-0.001198;-0.001332;-0.000666;2014-09-09 18:28:14:500
-0.017059;0.246154;9.81952;0.003292;0.030825;0.015263;-0.020351;0.215329;9.80425;-0.001198;-0.001332;-0.000666;2014-09-09 18:28:15:300
-0.017059;0.246154;9.81952;0.003292;0.030825;0.015263;-0.020351;0.215329;9.80425;-0.001198;-0.001332;-0.000666;2014-09-09 18:28:15:500
-0.017059;0.246154;9.81952;0.003292;0.030825;0.015263;-0.020351;0.215329;9.80425;-0.001198;-0.001332;-0.000666;2014-09-09 18:28:16:300
-0.017059;0.246154;9.81952;0.003292;0.030825;0.015263;-0.020351;0.215329;9.80425;-0.001198;-0.001332;-0.000666;2014-09-09 18:28:16:500
-0.017059;0.246154;9.81952;0.003292;0.030825;0.015263;-0.020351;0.215329;9.80425;-0.001198;-0.001332;-0.000666;2014-09-09 18:28:17:300
-0.017059;0.246154;9.81952;0.003292;0.030825;0.015263;-0.020351;0.215329;9.80425;-0.001198;-0.001332;-0.000666;2014-09-09 18:28:17:500
-0.017059;0.246154;9.81952;0.003292;0.030825;0.015263;-0.020351;0.215329;9.80425;-0.001198;-0.001332;-0.000666;2014-09-09 18:28:18:300
-0.017059;0.246154;9.81952;0.003292;0.030825;0.015263;-0.020351;0.215329;9.80425;-0.001198;-0.001332;-0.000666;2014-09-09 18:28:18:500
-0.017059;0.246154;9.81952;0.003292;0.030825;0.015263;-0.020351;0.215329;9.80425;-0.001198;-0.001332;-0.000666;2014-09-09 18:28:19:300
-0.017059;0.246154;9.81952;0.003292;0.030825;0.015263;-0.020351;0.215329;9.80425;-0.001198;-0.001332;-0.000666;2014-09-09 18:28:19:500
-0.017059;0.246154;9.81952;0.003292;0.030825;0.015263;-0.020351;0.215329;9.80425;-0.001198;-0.001332;-0.000666;2014-09-09 18:28:20:300
-0.017059;0.246154;9.81952;0.003292;0.030825;0.015263;-0.020351;0.215329;9.80425;-0.001198;-0.001332;-0.000666;2014-09-09 18:28:20:500
-0.017059;0.246154;9.81952;0.003292;0.030825;0.015263;-0.020351;0.215329;9.80425;-0.001198;-0.001332;-0.000666;2014-09-09 18:28:21:300
-0.017059;0.246154;9.81952;0.003292;0.030825;0.015263;-0.020351;0.215329;9.80425;-0.001198;-0.001332;-0.000666;2014-09-09 18:28:21:500
-0.017059;0.246154;9.81952;0.003292;0.030825;0.015263;-0.020351;0.215329;9.80425;-0.001198;-0.001332;-0.000666;2014-09-09 18:28:22:300
-0.017059;0.246154;9.81952;0.003292;0.030825;0.015263;-0.020351;0.215329;9.80425;-0.001198;-0.001332;-0.000666;2014-09-09 18:28:22:500
-0.017059;0.246154;9.81952;0.003292;0.030825;0.015263;-0.020351;0.215329;9.80425;-0.001198;-0.001332;-0.000666;2014-09-09 18:28:23:300
-0.017059;0.246154;9.81952;0.003292;0.030825;0.015263;-0.020351;0.215329;9.80425;-0.001198;-0.001332;-0.000666;2014-09-09 18:28:23:500
-0.017059;0.246154;9.81952;0.003292;0.030825;0.015263;-0.020351;0.215329;9.80425;-0.001198;-0.001332;-0.000666;2014-09-09 18:28:24:300
-0.017059;0.246154;9.81952;0.003292;0.030825;0.015263;-0.020351;0.215329;9.80425;-0.001198;-0.001332;-0.000666;2014-09-09 18:28:24:500
-0.017059;0.246154;9.81952;0.003292;0.030825;0.015263;-0.020351;0.215329;9.80425;-0.001198;-0.001332;-0.000666;2014-09-09 18:28:25:300
-0.017059;0.246154;9.81952;0.003292;0.030825;0.015263;-0.020351;0.215329;9.80425;-0.001198;-0.001332;-0.000666;2014-09-09 18:28:25:500
-0.017059;0.246154;9.81952;0.003292;0.030825;0.015263;-0.020351;0.215329;9.80425;-0.001198;-0.001332;-0.000666;2014-09-09 18:28:26:300
-0.017059;0.246154;9.81952;0.003292;0.030825;0.015263;-0.020351;0.215329;9.80425;-0.001198;-0.001332;-0.000666;2014-09-09 18:28:26:500
-0.017059;0.246154;9.81952;0.003292;0.030825;0.015263;-0.020351;0.215329;9.80425;-0.001198;-0.001332;-0.000666;2014-09-09 18:28:27:300
-0.017059;0.246154;9.81952;0.003292;0.030825;0.015263;-0.020351;0.215329;9.80425;-0.001198;-0.001332;-0.000666;2014-09-09 18:28:27:500
-0.017059;0.246154;9.81952;0.003292;0.030825;0.015263;-0.020351;0.215329;9.80425;-0.001198;-0.001332;-0.000666;2014-09-09 18:28:28:300
-0.017059;0.246154;9.81952;0.003292;0.030825;0.015263;-0.020351;0.215329;9.80425;-0.001198;-0.001332;-0.000666;2014-09-09 18:28:28:500
-0.017059;0.246154;9.81952;0.003292;0.030825;0.015263;-0.020351;0.215329;9.80425;-0.001198;-0.001332;-0.000666;2014-09-09 18:28:29:300
-0.017059;0.246154;9.81952;0.003292;0.030825;0.015263;-0.020351;0.215329;9.80425;-0.001198;-0.001332;-0.000666;2014-09-09 18:28:29:500
-0.017059;0.246154;9.81952;0.003292;0.030825;0.015263;-0.020351;0.215329;9.80425;-0.001198;-0.001332;-0.000666;2014-09-09 18:28:30:300
-0.017059;0.246154;9.81952;0.003292;0.030825;0.015263;-0.020351;0.215329;9.80425;-0.001198;-0.001332;-0.000666;2014-09-09 18:28:30:500
-0.017059;0.246154;9.81952;0.003292;0.030825;0.015263;-0.020351;0.215329;9.80425;-0.001198;-0.001332;-0.000666;2014-09-09 18:28:31:300
-0.017059;0.246154;9.81952;0.003292;0.030825;0.015263;-0.020351;0.215329;9.80425;-0.001198;-0.001332;-0.000666;2014-09-09 18:28:31:500
-0.017059;0.246154;9.81952;0.003292;0.030825;0.015263;-0.020351;0.215329;9.80425;-0.001198;-0.001332;-0.000666;2014-09-09 18:28:32:300
-0.017059;0.246154;9.81952;0.003292;0.030825;0.015263;-0.020351;0.215329;9.80425;-0.001198;-0.001332;-0.000666;2014-09-09 18:28:32:500
-0.017059;0.246154;9.81952;0.003292;0.030825;0.015263;-0.020351;0.215329;9.80425;-0.001198;-0.001332;-0.000666;2014-09-09 18:28:33:300
-0.017059;0.246154;9.81952;0.003292;0.030825;0.015263;-0.020351;0.215329;9.80425;-0.001198;-0.001332;-0.000666;2014-09-09 18:28:33:500
-0.017059;0.246154;9.81952;0.003292;0.030825;0.015263;-0.020351;0.215329;9.80425;-0.001198;-0.001332;-0.000666;2014-09-09 18:28:34:300
-0.017059;0.246154;9.81952;0.003292;0.030825;0.015263;-0.020351;0.215329;9.80425;-0.001198;-0.001332;-0.000666;2014-09-09 18:28:34:500
-0.017059;0.246154;9.81952;0.003292;0.030825;0.015263;-0.020351;0.215329;9.80425;-0.001198;-0.001332;-0.000666;2014-09-09 18:28:35:300
-0.017059;0.246154;9.81952;0.003292;0.030825;0.015263;-0.020351;0.215329;9.80425;-0.001198;-0.001332;-0.000666;2014-09-09 18:28:35:500
-0.017059;0.246154;9.81952;0.003292;0.030825;0.015263;-0.020351;0.215329;9.80425;-0.001198;-0.001332;-0.000666;2014-09-09 18:28:36:300
-0.017059;0.246154;9.81952;0.003292;0.030825;0.015263;-0.020351;0.215329;9.80425;-0.001198;-0.001332;-0.000666;2014-09-09 18:28:36:500
-0.017059;0.246154;9.81952;0.003292;0.030825;0.015263;-0.020351;0.215329;9.80425;-0.001198;-0.001332;-0.000666;2014-09-09 18:28:37:300
-0.017059;0.246154;9.81952;0.003292;0.030825;0.015263;-0.020351;0.215329;9.80425;-0.001198;-0.001332;-0.000666;2014-09-09 18:28:37:500
-0.017059;0.246154;9.81952;0.003292;0.030825;0.015263;-0.020351;0.215329;9.80425;-0.001198;-0.001332;-0.000666;2014-09-09 18:28:38:300
-0.017059;0.246154;9.81952;0.003292;0.030825;0.015263;-0.020351;0.215329;9.80425;-0.001198;-0.001332;-0.000666;2014-09-09 18:28:38:500
-0.017059;0.246154;9.81952;0.003292;0.030825;0.015263;-0.020351;0.215329;9.80425;-0.001198;-0.001332;-0.000666;2014-09-09 18:28:39:300
-0.017059;0.246154;9.81952;0.003292;0.030825;0.015263;-0.020351;0.215329;9.80425;-0.001198;-0.001332;-0.000666;2014-09-09 18:28:39:500
-0.017059;0.246154;9.81952;0.003292;0.030825;0.015263;-0.020351;0.215329;9.80425;-0.001198;-0.001332;-0.000666;2014-09-09 18:28:40:300
-0.017059;0.246154;9.81952;0.003292;0.030825;0.015263;-0.020351;0.215329;9.80425;-0.001198;-0.001332;-0.000666;2014-09-09 18:28:40:500
-0.017059;0.246154;9.81952;0.003292;0.030825;0.015263;-0.020351;0.215329;9.80425;-0.001198;-0.001332;-0.000666;2014-09-09 18:28:41:300
-0.017059;0.246154;9.81952;0.003292;0.030825;0.015263;-0.020351;0.215329;9.80425;-0.001198;-0.001332;-0.000666;2014-09-09 18:28:41:500
-0.017059;0.246154;9.81952;0.003292;0.030825;0.015263;-0.020351;0.215329;9.80425;-0.001198;-0.001332;-0.000666;2014-09-09 18:28:42:300
-0.017059;0.246154;9.81952;0.003292;0.030825;0.015263;-0.020351;0.215329;9.80425;-0.001198;-0.001332;-0.000666;2014-09-09 18:28:42:500
-0.017059;0.246154;9.81952;0.003292;0.030825;0.015263;-0.020351;0.215329;9.80425;-0.001198;-0.001332;-0.000666;2014-09-09 18:28:43:300
-0.017059;0.246154;9.81952;0.003292;0.030825;0.015263;-0.020351;0.215329;9.80425;-0.001198;-0.001332;-0.000666;2014-09-09 18:28:43:500
-0.017059;0.246154;9.81952;0.003292;0.030825;0.015263;-0.020351;0.215329;9.80425;-0.001198;-0.001332;-0.000666;2014-09-09 18:28:44:300
-0.017059;0.246154;9.81952;0.003292;0.030825;0.015263;-0.020351;0.215329;9.80425;-0.001198;-0.001332;-0.000666;2014-09-09 18:28:44:500
-0.017059;0.246154;9.81952;0.003292;0.030825;0.015263;-0.020351;0.215329;9.80425;-0.001198;-0.001332;-0.000666;2014-09-09 18:28:45:300
-0.017059;0.246154;9.81952;0.003292;0.030825;0.015263;-0.020351;0.215329;9.80425;-0.001198;-0.001332;-0.000666;2014-09-09 18:28:45:500
-0.017059;0.246154;9.81952;0.003292;0.030825;0.015263;-0.020351;0.215329;9.80425;-0.001198;-0.001332;-0.000666;2014-09-09 18:28:46:300
-0.017059;0.246154;9.81952;0.003292;0.030825;0.015263;-0.020351;0.215329;9.80425;-0.001198;-0.001332;-0.000666;2014-09-09 18:28:46:500
-0.017059;0.246154;9.81952;0.003292;0.030825;0.015263;-0.020351;0.215329;9.80425;-0.001198;-0.001332;-0.000666;2014-09-09 18:28:47:300
-0.017059;0.246154;9.81952;0.003292;0.030825;0.015263;-0.020351;0.215329;9.80425;-0.001198;-0.001332;-0.000666;2014-09-09 18:28:47:500
-0.017059;0.246154;9.81952;0.003292;0.030825;0.015263;-0.020351;0.215329;9.80425;-0.001198;-0.001332;-0.000666;2014-09-09 18:28:48:300
-0.017059;0.246154;9.81952;0.003292;0.030825;0.015263;-0.020351;0.215329;9.80425;-0.001198;-0.001332;-0.000666;2014-09-09 18:28:48:500
-0.017059;0.246154;9.81952;0.003292;0.030825;0.015263;-0.020351;0.215329;9.80425;-0.001198;-0.001332;-0.000666;2014-09-09 18:28:49:300
-0.017059;0.246154;9.81952;0.003292;0.030825;0.015263;-0.020351;0.215329;9.80425;-0.001198;-0.001332;-0.000666;2014-09-09 18:28:49:500
-0.017059;0.246154;9.81952;0.003292;0.030825;0.015263;-0.020351;0.215329;9.80425;-0.001198;-0.001332;-0.000666;2014-09-09 18:28:50:300
-0.017059;0.246154;9.81952;0.003292;0.030825;0.015263;-0.020351;0.215329;9.80425;-0.001198;-0.001332;-0.000666;2014-09-09 18:28:50:500
-0.017059;0.246154;9.81952;0.003292;0.030825;0.015263;-0.020351;0.215329;9.80425;-0.001198;-0.001332;-0.000666;2014-09-09 18:28:51:300
-0.017059;0.246154;9.81952;0.003292;0.030825;0.015263;-0.020351;0.215329;9.80425;-0.001198;-0.001332;-0.000666;2014-09-09 18:28:51:500
-0.017059;0.246154;9.81952;0.003292;0.030825;0.015263;-0.020351;0.215329;9.80425;-0.001198;-0.001332;-0.000666;2014-09-09 18:28:52:300
-0.017059;0.246154;9.81952;0.003292;0.030825;0.015263;-0.020351;0.215329;9.80425;-0.001198;-0.001332;-0.000666;2014-09-09 18:28:52:500
-0.017059;0.246154;9.81952;0.003292;0.030825;0.015263;-0.020351;0.215329;9.80425;-0.001198;-0.001332;-0.000666;2014-09-09 18:28:53:300
-0.017059;0.246154;9.81952;0.003292;0.030825;0.015263;-0.020351;0.215329;9.80425;-0.001198;-0.001332;-0.000666;2014-09-09 18:28:53:500
-0.017059;0.246154;9.81952;0.003292;0.030825;0.015263;-0.020351;0.215329;9.80425;-0.001198;-0.001332;-0.000666;2014-09-09 18:28:54:300
-0.017059;0.246154;9.81952;0.003292;0.030825;0.015263;-0.020351;0.215329;9.80425;-0.001198;-0.001332;-0.000666;2014-09-09 18:28:54:500
-0.017059;0.246154;9.81952;0.003292;0.030825;0.015263;-0.020351;0.215329;9.80425;-0.001198;-0.001332;-0.000666;2014-09-09 18:28:55:300
-0.017059;0.246154;9.81952;0.003292;0.030825;0.015263;-0.020351;0.215329;9.80425;-0.001198;-0.001332;-0.000666;2014-09-09 18:28:55:500
-0.017059;0.246154;9.81952;0.003292;0.030825;0.015263;-0.020351;0.215329;9.80425;-0.001198;-0.001332;-0.000666;2014-09-09 18:28:56:300
-0.017059;0.246154;9.81952;0.003292;0.030825;0.015263;-0.020351;0.215329;9.80425;-0.001198;-0.001332;-0.000666;2014-09-09 18:28:56:500
-0.017059;0.246154;9.81952;0.003292;0.030825;0.015263;-0.020351;0.215329;9.80425;-0.001198;-0.001332;-0.000666;2014-09-09 18:28:57:300
-0.017059;0.246154;9.81952;0.003292;0.030825;0.015263;-0.020351;0.215329;9.80425;-0.001198;-0.001332;-0.000666;2014-09-09 18:28:57:500
-0.017059;0.246154;9.81952;0.003292;0.030825;0.015263;-0.020351;0.215329;9.80425;-0.001198;-0.001332;-0.000666;2014-09-09 18:28:58:300
-0.017059;0.246154;9.81952;0.003292;0.030825;0.015263;-0.020351;0.215329;9.80425;-0.001198;-0.001332;-0.000666;2014-09-09 18:28:58:500
-0.017059;0.246154;9.81952;0.003292;0.030825;0.015263;-0.020351;0.215329;9.80425;-0.001198;-0.001332;-0.000666;2014-09-09 18:28:59:300
-0.017059;0.246154;9.81952;0.003292;0.030825;0.015263;-0.020351;0.215329;9.80425;-0.001198;-0.001332;-0.000666;2014-09-09 18:28:59:500
-0.017059;0.246154;9.81952;0.003292;0.030825;0.015263;-0.020351;0.215329;9.80425;-0.001198;-0.001332;-0.000666;2014-09-09 18:29:00:300
-0.017059;0.246154;9.81952;0.003292;0.030825;0.015263;-0.020351;0.215329;9.80425;-0.001198;-0.001332;-0.000666;2014-09-09 18:29:00:500
-0.017059;0.246154;9.81952;0.003292;0.030825;0.015263;-0.020351;0.215329;9.80425;-0.001198;-0.001332;-0.000666;2014-09-09 18:29:01:300
-0.017059;0.246154;9.81952;0.003292;0.030825;0.015263;-0.020351;0.215329;9.80425;-0.001198;-0.001332;-0.000666;2014-09-09 18:29:01:500
-0.017059;0.246154;9.81952;0.003292;0.030825;0.015263;-0.020351;0.215329;9.80425;-0.001198;-0.001332;-0.000666;2014-09-09 18:29:02:300
-0.017059;0.246154;9.81952;0.003292;0.030825;0.015263;-0.020351;0.215329;9.80425;-0.001198;-0.001332;-0.000666;2014-09-09 18:29:02:500
-0.017059;0.246154;9.81952;0.003292;0.030825;0.015263;-0.020351;0.215329;9.80425;-0.001198;-0.001332;-0.000666;2014-09-09 18:29:03:300
-0.017059;0.246154;9.81952;0.003292;0.030825;0.015263;-0.020351;0.215329;9.80425;-0.001198;-0.001332;-0.000666;2014-09-09 18:29:03:500
-0.017059;0.246154;9.81952;0.003292;0.030825;0.015263;-0.020351;0.215329;9.80425;-0.001198;-0.001332;-0.000666;2014-09-09 18:29:04:300
-0.017059;0.246154;9.81952;0.003292;0.030825;0.015263;-0.020351;0.215329;9.80425;-0.001198;-0.001332;-0.000666;2014-09-09 18:29:04:500
-0.017059;0.246154;9.81952;0.003292;0.030825;0.015263;-0.020351;0.215329;9.80425;-0.001198;-0.001332;-0.000666;2014-09-09 18:29:05:300
-0.017059;0.246154;9.81952;0.003292;0.030825;0.015263;-0.020351;0.215329;9.80425;-0.001198;-0.001332;-0.000666;2014-09-09 18:29:05:500
-0.017059;0.246154;9.81952;0.003292;0.030825;0.015263;-0.020351;0.215329;9.80425;-0.001198;-0.001332;-0.000666;2014-09-09 18:29:06:300
-0.017059;0.246154;9.81952;0.003292;0.030825;0.015263;-0.020351;0.215329;9.80425;-0.001198;-0.001332;-0.000666;2014-09-09 18:29:06:500
-0.017059;0.246154;9.81952;0.003292;0.030825;0.015263;-0.020351;0.215329;9.80425;-0.001198;-0.001332;-0.000666;2014-09-09 18:29:07:300
-0.017059;0.246154;9.81952;0.003292;0.030825;0.015263;-0.020351;0.215329;9.80425;-0.001198;-0.001332;-0.000666;2014-09-09 18:29:07:500
-0.017059;0.246154;9.81952;0.003292;0.030825;0.015263;-0.020351;0.215329;9.80425;-0.001198;-0.001332;-0.000666;2014-09-09 18:29:08:300
-0.017059;0.246154;9.81952;0.003292;0.030825;0.015263;-0.020351;0.215329;9.80425;-0.001198;-0.001332;-0.000666;2014-09-09 18:29:08:500
-0.017059;0.246154;9.81952;0.003292;0.030825;0.015263;-0.020351;0.215329;9.80425;-0.001198;-0.001332;-0.000666;2014-09-09 18:29:09:300
-0.017059;0.246154;9.81952;0.003292;0.030825;0.015263;-0.020351;0.215329;9.80425;-0.001198;-0.001332;-0.000666;2014-09-09 18:29:09:500
-0.017059;0.246154;9.81952;0.003292;0.030825;0.015263;-0.020351;0.215329;9.80425;-0.001198;-0.001332;-0.000666;2014-09-09 18:29:10:300
-0.017059;0.246154;9.81952;0.003292;0.030825;0.015263;-0.020351;0.215329;9.80425;-0.001198;-0.001332;-0.000666;2014-09-09 18:29:10:500
-0.017059;0.246154;9.81952;0.003292;0.030825;0.015263;-0.020351;0.215329;9.80425;-0.001198;-0.001332;-0.000666;2014-09-09 18:29:11:300
-0.017059;0.246154;9.81952;0.003292;0.030825;0.015263;-0.020351;0.215329;9.80425;-0.001198;-0.001332;-0.000666;2014-09-09 18:29:11:500
-0.017059;0.246154;9.81952;0.003292;0.030825;0.015263;-0.020351;0.215329;9.80425;-0.001198;-0.001332;-0.000666;2014-09-09 18:29:12:300
-0.017059;0.246154;9.81952;0.003292;0.030825;0.015263;-0.020351;0.215329;9.80425;-0.001198;-0.001332;-0.000666;2014-09-09 18:29:12:500
-0.017059;0.246154;9.81952;0.003292;0.030825;0.015263;-0.020351;0.215329;9.80425;-0.001198;-0.001332;-0.000666;2014-09-09 18:29:13:300
-0.017059;0.246154;9.81952;0.003292;0.030825;0.015263;-0.020351;0.215329;9.80425;-0.001198;-0.001332;-0.000666;2014-09-09 18:29:13:500
-0.017059;0.246154;9.81952;0.003292;0.030825;0.015263;-0.020351;0.215329;9.80425;-0.001198;-0.001332;-0.000666;2014-09-09 18:29:14:300
-0.017059;0.246154;9.81952;0.003292;0.030825;0.015263;-0.020351;0.215329;9.80425;-0.001198;-0.001332;-0.000666;2014-09-09 18:29:14:500
-0.017059;0.246154;9.81952;0.003292;0.030825;0.015263;-0.020351;0.215329;9.80425;-0.001198;-0.001332;-0.000666;2014-09-09 18:29:15:300
-0.017059;0.246154;9.81952;0.003292;0.030825;0.015263;-0.020351;0.215329;9.80425;-0.001198;-0.001332;-0.000666;2014-09-09 18:29:15:500
-0.017059;0.246154;9.81952;0.003292;0.030825;0.015263;-0.020351;0.215329;9.80425;-0.001198;-0.001332;-0.000666;2014-09-09 18:29:16:300
-0.017059;0.246154;9.81952;0.003292;0.030825;0.015263;-0.020351;0.215329;9.80425;-0.001198;-0.001332;-0.000666;2014-09-09 18:29:16:500
-0.017059;0.246154;9.81952;0.003292;0.030825;0.015263;-0.020351;0.215329;9.80425;-0.001198;-0.001332;-0.000666;2014-09-09 18:29:17:300
-0.017059;0.246154;9.81952;0.003292;0.030825;0.015263;-0.020351;0.215329;9.80425;-0.001198;-0.001332;-0.000666;2014-09-09 18:29:17:500
-0.017059;0.246154;9.81952;0.003292;0.030825;0.015263;-0.020351;0.215329;9.80425;-0.001198;-0.001332;-0.000666;2014-09-09 18:29:18:300
-0.017059;0.246154;9.81952;0.003292;0.030825;0.015263;-0.020351;0.215329;9.80425;-0.001198;-0.001332;-0.000666;2014-09-09 18:29:18:500
-0.017059;0.246154;9.81952;0.003292;0.030825;0.015263;-0.020351;0.215329;9.80425;-0.001198;-0.001332;-0.000666;2014-09-09 18:29:19:300
-0.017059;0.246154;9.81952;0.003292;0.030825;0.015263;-0.020351;0.215329;9.80425;-0.001198;-0.001332;-0.000666;2014-09-09 18:29:19:500
-0.017059;0.246154;9.81952;0.003292;0.030825;0.015263;-0.020351;0.215329;9.80425;-0.001198;-0.001332;-0.000666;2014-09-09 18:29:20:300
-0.017059;0.246154;9.81952;0.003292;0.030825;0.015263;-0.020351;0.215329;9.80425;-0.001198;-0.001332;-0.000666;2014-09-09 18:29:20:500
-0.017059;0.246154;9.81952;0.003292;0.030825;0.015263;-0.020351;0.215329;9.80425;-0.001198;-0.001332;-0.000666;2014-09-09 18:29:21:300
-0.017059;0.246154;9.81952;0.003292;0.030825;0.015263;-0.020351;0.215329;9.80425;-0.001198;-0.001332;-0.000666;2014-09-09 18:29:21:500
-0.017059;0.246154;9.81952;0.003292;0.030825;0.015263;-0.020351;0.215329;9.80425;-0.001198;-0.001332;-0.000666;2014-09-09 18:29:22:300
-0.017059;0.246154;9.81952;0.003292;0.030825;0.015263;-0.020351;0.215329;9.80425;-0.001198;-0.001332;-0.000666;2014-09-09 18:29:22:500
-0.017059;0.246154;9.81952;0.003292;0.030825;0.015263;-0.020351;0.215329;9.80425;-0.001198;-0.001332;-0.000666;2014-09-09 18:29:23:300
-0.017059;0.246154;9.81952;0.003292;0.030825;0.015263;-0.020351;0.215329;9.80425;-0.001198;-0.001332;-0.000666;2014-09-09 18:29:23:500
-0.017059;0.246154;9.81952;0.003292;0.030825;0.015263;-0.020351;0.215329;9.80425;-0.001198;-0.001332;-0.000666;2014-09-09 18:29:24:300
-0.017059;0.246154;9.81952;0.003292;0.030825;0.015263;-0.020351;0.215329;9.80425;-0.001198;-0.001332;-0.000666;2014-09-09 18:29:24:500
-0.017059;0.246154;9.81952;0.003292;0.030825;0.015263;-0.020351;0.215329;9.80425;-0.001198;-0.001332;-0.000666;2014-09-09 18:29:25:300
-0.017059;0.246154;9.81952;0.003292;0.030825;0.015263;-0.020351;0.215329;9.80425;-0.001198;-0.001332;-0.000666;2014-09-09 18:29:25:500
-0.017059;0.246154;9.81952;0.003292;0.030825;0.015263;-0.020351;0.215329;9.80425;-0.001198;-0.001332;-0.000666;2014-09-09 18:29:26:300
-0.017059;0.246154;9.81952;0.003292;0.030825;0.015263;-0.020351;0.215329;9.80425;-0.001198;-0.001332;-0.000666;2014-09-09 18:29:26:500
-0.017059;0.246154;9.81952;0.003292;0.030825;0.015263;-0.020351;0.215329;9.80425;-0.001198;-0.001332;-0.000666;2014-09-09 18:29:27:300
-0.017059;0.246154;9.81952;0.003292;0.030825;0.015263;-0.020351;0.215329;9.80425;-0.001198;-0.001332;-0.000666;2014-09-09 18:29:27:500
-0.017059;0.246154;9.81952;0.003292;0.030825;0.015263;-0.020351;0.215329;9.80425;-0.001198;-0.001332;-0.000666;2014-09-09 18:29:28:300
-0.017059;0.246154;9.81952;0.003292;0.030825;0.015263;-0.020351;0.215329;9.80425;-0.001198;-0.001332;-0.000666;2014-09-09 18:29:28:500
-0.017059;0.246154;9.81952;0.003292;0.030825;0.015263;-0.020351;0.215329;9.80425;-0.001198;-0.001332;-0.000666;2014-09-09 18:29:29:300
-0.017059;0.246154;9.81952;0.003292;0.030825;0.015263;-0.020351;0.215329;9.80425;-0.001198;-0.001332;-0.000666;2014-09-09 18:29:29:500
-0.017059;0.246154;9.81952;0.003292;0.030825;0.015263;-0.020351;0.215329;9.80425;-0.001198;-0.001332;-0.000666;2014-09-09 18:29:30:300
-0.017059;0.246154;9.81952;0.003292;0.030825;0.015263;-0.020351;0.215329;9.80425;-0.001198;-0.001332;-0.000666;2014-09-09 18:29:30:500
-0.017059;0.246154;9.81952;0.003292;0.030825;0.015263;-0.020351;0.215329;9.80425;-0.001198;-0.001332;-0.000666;2014-09-09 18:29:31:300
-0.017059;0.246154;9.81952;0.003292;0.030825;0.015263;-0.020351;0.215329;9.80425;-0.001198;-0.001332;-0.000666;2014-09-09 18:29:31:500
-0.017059;0.246154;9.81952;0.003292;0.030825;0.015263;-0.020351;0.215329;9.80425;-0.001198;-0.001332;-0.000666;2014-09-09 18:29:32:300
-0.017059;0.246154;9.81952;0.003292;0.030825;0.015263;-0.020351;0.215329;9.80425;-0.001198;-0.001332;-0.000666;2014-09-09 18:29:32:500
-0.017059;0.246154;9.81952;0.003292;0.030825;0.015263;-0.020351;0.215329;9.80425;-0.001198;-0.001332;-0.000666;2014-09-09 18:29:33:300
-0.017059;0.246154;9.81952;0.003292;0.030825;0.015263;-0.020351;0.215329;9.80425;-0.001198;-0.001332;-0.000666;2014-09-09 18:29:33:500
-0.017059;0.246154;9.81952;0.003292;0.030825;0.015263;-0.020351;0.215329;9.80425;-0.001198;-0.001332;-0.000666;2014-09-09 18:29:34:300
-0.017059;0.246154;9.81952;0.003292;0.030825;0.015263;-0.020351;0.215329;9.80425;-0.001198;-0.001332;-0.000666;2014-09-09 18:29:34:500
-0.017059;0.246154;9.81952;0.003292;0.030825;0.015263;-0.020351;0.215329;9.80425;-0.001198;-0.001332;-0.000666;2014-09-09 18:29:35:300
-0.017059;0.246154;9.81952;0.003292;0.030825;0.015263;-0.020351;0.215329;9.80425;-0.001198;-0.001332;-0.000666;2014-09-09 18:29:35:500
-0.017059;0.246154;9.81952;0.003292;0.030825;0.015263;-0.020351;0.215329;9.80425;-0.001198;-0.001332;-0.000666;2014-09-09 18:29:36:300
-0.017059;0.246154;9.81952;0.003292;0.030825;0.015263;-0.020351;0.215329;9.80425;-0.001198;-0.001332;-0.000666;2014-09-09 18:29:36:500
-0.017059;0.246154;9.81952;0.003292;0.030825;0.015263;-0.020351;0.215329;9.80425;-0.001198;-0.001332;-0.000666;2014-09-09 18:29:37:300
-0.017059;0.246154;9.81952;0.003292;0.030825;0.015263;-0.020351;0.215329;9.80425;-0.001198;-0.001332;-0.000666;2014-09-09 18:29:37:500
-0.017059;0.246154;9.81952;0.003292;0.030825;0.015263;-0.020351;0.215329;9.80425;-0.001198;-0.001332;-0.000666;2014-09-09 18:29:38:300
-0.017059;0.246154;9.81952;0.003292;0.030825;0.015263;-0.020351;0.215329;9.80425;-0.001198;-0.001332;-0.000666;2014-09-09 18:29:38:500
-0.017059;0.246154;9.81952;0.003292;0.030825;0.015263;-0.020351;0.215329;9.80425;-0.001198;-0.001332;-0.000666;2014-09-09 18:29:39:300
-0.017059;0.246154;9.81952;0.003292;0.030825;0.015263;-0.020351;0.215329;9.80425;-0.001198;-0.001332;-0.000666;2014-09-09 18:29:39:500
-0.017059;0.246154;9.81952;0.003292;0.030825;0.015263;-0.020351;0.215329;9.80425;-0.001198;-0.001332;-0.000666;2014-09-09 18:29:40:300
-0.017059;0.246154;9.81952;0.003292;0.030825;0.015263;-0.020351;0.215329;9.80425;-0.001198;-0.001332;-0.000666;2014-09-09 18:29:40:500
-0.017059;0.246154;9.81952;0.003292;0.030825;0.015263;-0.020351;0.215329;9.80425;-0.001198;-0.001332;-0.000666;2014-09-09 18:29:41:300
-0.017059;0.246154;9.81952;0.003292;0.030825;0.015263;-0.020351;0.215329;9.80425;-0.001198;-0.001332;-0.000666;2014-09-09 18:29:41:500
-0.017059;0.246154;9.81952;0.003292;0.030825;0.015263;-0.020351;0.215329;9.80425;-0.001198;-0.001332;-0.000666;2014-09-09 18:29:42:300
-0.017059;0.246154;9.81952;0.003292;0.030825;0.015263;-0.020351;0.215329;9.80425;-0.001198;-0.001332;-0.000666;2014-09-09 18:29:42:500
-0.017059;0.246154;9.81952;0.003292;0.030825;0.015263;-0.020351;0.215329;9.80425;-0.001198;-0.001332;-0.000666;2014-09-09 18:29:43:300
-0.017059;0.246154;9.81952;0.003292;0.030825;0.015263;-0.020351;0.215329;9.80425;-0.001198;-0.001332;-0.000666;2014-09-09 18:29:43:500
-0.017059;0.246154;9.81952;0.003292;0.030825;0.015263;-0.020351;0.215329;9.80425;-0.001198;-0.001332;-0.000666;2014-09-09 18:29:44:300
-0.017059;0.246154;9.81952;0.003292;0.030825;0.015263;-0.020351;0.215329;9.80425;-0.001198;-0.001332;-0.000666;2014-09-09 18:29:44:500
-0.017059;0.246154;9.81952;0.003292;0.030825;0.015263;-0.020351;0.215329;9.80425;-0.001198;-0.001332;-0.000666;2014-09-09 18:29:45:300
-0.017059;0.246154;9.81952;0.003292;0.030825;0.015263;-0.020351;0.215329;9.80425;-0.001198;-0.001332;-0.000666;2014-09-09 18:29:45:500
-0.017059;0.246154;9.81952;0.003292;0.030825;0.015263;-0.020351;0.215329;9.80425;-0.001198;-0.001332;-0.000666;2014-09-09 18:29:46:300
-0.017059;0.246154;9.81952;0.003292;0.030825;0.015263;-0.020351;0.215329;9.80425;-0.001198;-0.001332;-0.000666;2014-09-09 18:29:46:500
-0.017059;0.246154;9.81952;0.003292;0.030825;0.015263;-0.020351;0.215329;9.80425;-0.001198;-0.001332;-0.000666;2014-09-09 18:29:47:300
-0.017059;0.246154;9.81952;0.003292;0.030825;0.015263;-0.020351;0.215329;9.80425;-0.001198;-0.001332;-0.000666;2014-09-09 18:29:47:500
-0.017059;0.246154;9.81952;0.003292;0.030825;0.015263;-0.020351;0.215329;9.80425;-0.001198;-0.001332;-0.000666;2014-09-09 18:29:48:300
-0.017059;0.246154;9.81952;0.003292;0.030825;0.015263;-0.020351;0.215329;9.80425;-0.001198;-0.001332;-0.000666;2014-09-09 18:29:48:500
-0.017059;0.246154;9.81952;0.003292;0.030825;0.015263;-0.020351;0.215329;9.80425;-0.001198;-0.001332;-0.000666;2014-09-09 18:29:49:300
-0.017059;0.246154;9.81952;0.003292;0.030825;0.015263;-0.020351;0.215329;9.80425;-0.001198;-0.001332;-0.000666;2014-09-09 18:29:49:500
-0.017059;0.246154;9.81952;0.003292;0.030825;0.015263;-0.020351;0.215329;9.80425;-0.001198;-0.001332;-0.000666;2014-09-09 18:29:50:300
-0.017059;0.246154;9.81952;0.003292;0.030825;0.015263;-0.020351;0.215329;9.80425;-0.001198;-0.001332;-0.000666;2014-09-09 18:29:50:500
-0.017059;0.246154;9.81952;0.003292;0.030825;0.015263;-0.020351;0.215329;9.80425;-0.001198;-0.001332;-0.000666;2014-09-09 18:29:51:300
-0.017059;0.246154;9.81952;0.003292;0.030825;0.015263;-0.020351;0.215329;9.80425;-0.001198;-0.001332;-0.000666;2014-09-09 18:29:51:500
-0.017059;0.246154;9.81952;0.003292;0.030825;0.015263;-0.020351;0.215329;9.80425;-0.001198;-0.001332;-0.000666;2014-09-09 18:29:52:300
-0.017059;0.246154;9.81952;0.003292;0.030825;0.015263;-0.020351;0.215329;9.80425;-0.001198;-0.001332;-0.000666;2014-09-09 18:29:52:500
-0.017059;0.246154;9.81952;0.003292;0.030825;0.015263;-0.020351;0.215329;9.80425;-0.001198;-0.001332;-0.000666;2014-09-09 18:29:53:300
-0.017059;0.246154;9.81952;0.003292;0.030825;0.015263;-0.020351;0.215329;9.80425;-0.001198;-0.001332;-0.000666;2014-09-09 18:29:53:500
-0.017059;0.246154;9.81952;0.003292;0.030825;0.015263;-0.020351;0.215329;9.80425;-0.001198;-0.001332;-0.000666;2014-09-09 18:29:54:300
-0.017059;0.246154;9.81952;0.003292;0.030825;0.015263;-0.020351;0.215329;9.80425;-0.001198;-0.001332;-0.000666;2014-09-09 18:29:54:500
-0.017059;0.246154;9.81952;0.003292;0.030825;0.015263;-0.020351;0.215329;9.80425;-0.001198;-0.001332;-0.000666;2014-09-09 18:29:55:300
-0.017059;0.246154;9.81952;0.003292;0.030825;0.015263;-0.020351;0.215329;9.80425;-0.001198;-0.001332;-0.000666;2014-09-09 18:29:55:500
-0.017059;0.246154;9.81952;0.003292;0.030825;0.015263;-0.020351;0.215329;9.80425;-0.001198;-0.001332;-0.000666;2014-09-09 18:29:56:300
-0.017059;0.246154;9.81952;0.003292;0.030825;0.015263;-0.020351;0.215329;9.80425;-0.001198;-0.001332;-0.000666;2014-09-09 18:29:56:500
-0.017059;0.246154;9.81952;0.003292;0.030825;0.015263;-0.020351;0.215329;9.80425;-0.001198;-0.001332;-0.000666;2014-09-09 18:29:57:300
-0.017059;0.246154;9.81952;0.003292;0.030825;0.015263;-0.020351;0.215329;9.80425;-0.001198;-0.001332;-0.000666;2014-09-09 18:29:57:500
-0.017059;0.246154;9.81952;0.003292;0.030825;0.015263;-0.020351;0.215329;9.80425;-0.001198;-0.001332;-0.000666;2014-09-09 18:29:58:300
-0.017059;0.246154;9.81952;0.003292;0.030825;0.015263;-0.020351;0.215329;9.80425;-0.001198;-0.001332;-0.000666;2014-09-09 18:29:58:500
-0.017059;0.246154;9.81952;0.003292;0.030825;0.015263;-0.020351;0.215329;9.80425;-0.001198;-0.001332;-0.000666;2014-09-09 18:29:59:300
-0.017059;0.246154;9.81952;0.003292;0.030825;0.015263;-0.020351;0.215329;9.80425;-0.001198;-0.001332;-0.000666;2014-09-09 18:29:59:500
-0.017059;0.246154;9.81952;0.003292;0.030825;0.015263;-0.020351;0.215329;9.80425;-0.001198;-0.001332;-0.000666;2014-09-09 18:30:00:300
-0.017059;0.246154;9.81952;0.003292;0.030825;0.015263;-0.020351;0.215329;9.80425;-0.001198;-0.001332;-0.000666;2014-09-09 18:30:00:500
-0.017059;0.246154;9.81952;0.003292;0.030825;0.015263;-0.020351;0.215329;9.80425;-0.001198;-0.001332;-0.000666;2014-09-09 18:30:01:300
-0.017059;0.246154;9.81952;0.003292;0.030825;0.015263;-0.020351;0.215329;9.80425;-0.001198;-0.001332;-0.000666;2014-09-09 18:30:01:500
-0.017059;0.246154;9.81952;0.003292;0.030825;0.015263;-0.020351;0.215329;9.80425;-0.001198;-0.001332;-0.000666;2014-09-09 18:30:02:300
-0.017059;0.246154;9.81952;0.003292;0.030825;0.015263;-0.020351;0.215329;9.80425;-0.001198;-0.001332;-0.000666;2014-09-09 18:30:02:500
-0.017059;0.246154;9.81952;0.003292;0.030825;0.015263;-0.020351;0.215329;9.80425;-0.001198;-0.001332;-0.000666;2014-09-09 18:30:03:300
-0.017059;0.246154;9.81952;0.003292;0.030825;0.015263;-0.020351;0.215329;9.80425;-0.001198;-0.001332;-0.000666;2014-09-09 18:30:03:500
-0.017059;0.246154;9.81952;0.003292;0.030825;0.015263;-0.020351;0.215329;9.80425;-0.001198;-0.001332;-0.000666;2014-09-09 18:30:04:300
-0.017059;0.246154;9.81952;0.003292;0.030825;0.015263;-0.020351;0.215329;9.80425;-0.001198;-0.001332;-0.000666;2014-09-09 18:30:04:500
-0.017059;0.246154;9.81952;0.003292;0.030825;0.015263;-0.020351;0.215329;9.80425;-0.001198;-0.001332;-0.000666;2014-09-09 18:30:05:300
-0.017059;0.246154;9.81952;0.003292;0.030825;0.015263;-0.020351;0.215329;9.80425;-0.001198;-0.001332;-0.000666;2014-09-09 18:30:05:500
-0.017059;0.246154;9.81952;0.003292;0.030825;0.015263;-0.020351;0.215329;9.80425;-0.001198;-0.001332;-0.000666;2014-09-09 18:30:06:300
-0.017059;0.246154;9.81952;0.003292;0.030825;0.015263;-0.020351;0.215329;9.80425;-0.001198;-0.001332;-0.000666;2014-09-09 18:30:06:500
-0.017059;0.246154;9.81952;0.003292;0.030825;0.015263;-0.020351;0.215329;9.80425;-0.001198;-0.001332;-0.000666;2014-09-09 18:30:07:300
-0.017059;0.246154;9.81952;0.003292;0.030825;0.015263;-0.020351;0.215329;9.80425;-0.001198;-0.001332;-0.000666;2014-09-09 18:30:07:500
-0.017059;0.246154;9.81952;0.003292;0.030825;0.015263;-0.020351;0.215329;9.80425;-0.001198;-0.001332;-0.000666;2014-09-09 18:30:08:300
-0.017059;0.246154;9.81952;0.003292;0.030825;0.015263;-0.020351;0.215329;9.80425;-0.001198;-0.001332;-0.000666;2014-09-09 18:30:08:500
-0.017059;0.246154;9.81952;0.003292;0.030825;0.015263;-0.020351;0.215329;9.80425;-0.001198;-0.001332;-0.000666;2014-09-09 18:30:09:300
-0.017059;0.246154;9.81952;0.003292;0.030825;0.015263;-0.020351;0.215329;9.80425;-0.001198;-0.001332;-0.000666;2014-09-09 18:30:09:500
-0.017059;0.246154;9.81952;0.003292;0.030825;0.015263;-0.020351;0.215329;9.80425;-0.001198;-0.001332;-0.000666;2014-09-09 18:30:10:300
-0.017059;0.246154;9.81952;0.003292;0.030825;0.015263;-0.020351;0.215329;9.80425;-0.001198;-0.001332;-0.000666;2014-09-09 18:30:10:500
-0.017059;0.246154;9.81952;0.003292;0.030825;0.015263;-0.020351;0.215329;9.80425;-0.001198;-0.001332;-0.000666;2014-09-09 18:30:11:300
-0.017059;0.246154;9.81952;0.003292;0.030825;0.015263;-0.020351;0.215329;9.80425;-0.001198;-0.001332;-0.000666;2014-09-09 18:30:11:500
-0.017059;0.246154;9.81952;0.003292;0.030825;0.015263;-0.020351;0.215329;9.80425;-0.001198;-0.001332;-0.000666;2014-09-09 18:30:12:300
-0.017059;0.246154;9.81952;0.003292;0.030825;0.015263;-0.020351;0.215329;9.80425;-0.001198;-0.001332;-0.000666;2014-09-09 18:30:12:500
-0.017059;0.246154;9.81952;0.003292;0.030825;0.015263;-0.020351;0.215329;9.80425;-0.001198;-0.001332;-0.000666;2014-09-09 18:30:13:300
-0.017059;0.246154;9.81952;0.003292;0.030825;0.015263;-0.020351;0.215329;9.80425;-0.001198;-0.001332;-0.000666;2014-09-09 18:30:13:500
-0.017059;0.246154;9.81952;0.003292;0.030825;0.015263;-0.020351;0.215329;9.80425;-0.001198;-0.001332;-0.000666;2014-09-09 18:30:14:300
-0.017059;0.246154;9.81952;0.003292;0.030825;0.015263;-0.020351;0.215329;9.80425;-0.001198;-0.001332;-0.000666;2014-09-09 18:30:14:500
-0.017059;0.246154;9.81952;0.003292;0.030825;0.015263;-0.020351;0.215329;9.80425;-0.001198;-0.001332;-0.000666;2014-09-09 18:30:15:300
-0.017059;0.246154;9.81952;0.003292;0.030825;0.015263;-0.020351;0.215329;9.80425;-0.001198;-0.001332;-0.000666;2014-09-09 18:30:15:500
-0.017059;0.246154;9.81952;0.003292;0.030825;0.015263;-0.020351;0.215329;9.80425;-0.001198;-0.001332;-0.000666;2014-09-09 18:30:16:300
-0.017059;0.246154;9.81952;0.003292;0.030825;0.015263;-0.020351;0.215329;9.80425;-0.001198;-0.001332;-0.000666;2014-09-09 18:30:16:500
-0.017059;0.246154;9.81952;0.003292;0.030825;0.015263;-0.020351;0.215329;9.80425;-0.001198;-0.001332;-0.000666;2014-09-09 18:30:17:300
-0.017059;0.246154;9.81952;0.003292;0.030825;0.015263;-0.020351;0.215329;9.80425;-0.001198;-0.001332;-0.000666;2014-09-09 18:30:17:500
-0.017059;0.246154;9.81952;0.003292;0.030825;0.015263;-0.020351;0.215329;9.80425;-0.001198;-0.001332;-0.000666;2014-09-09 18:30:18:300
-0.017059;0.246154;9.81952;0.003292;0.030825;0.015263;-0.020351;0.215329;9.80425;-0.001198;-0.001332;-0.000666;2014-09-09 18:30:18:500
-0.017059;0.246154;9.81952;0.003292;0.030825;0.015263;-0.020351;0.215329;9.80425;-0.001198;-0.001332;-0.000666;2014-09-09 18:30:19:300
-0.017059;0.246154;9.81952;0.003292;0.030825;0.015263;-0.020351;0.215329;9.80425;-0.001198;-0.001332;-0.000666;2014-09-09 18:30:19:500
-0.017059;0.246154;9.81952;0.003292;0.030825;0.015263;-0.020351;0.215329;9.80425;-0.001198;-0.001332;-0.000666;2014-09-09 18:30:20:300
-0.017059;0.246154;9.81952;0.003292;0.030825;0.015263;-0.020351;0.215329;9.80425;-0.001198;-0.001332;-0.000666;2014-09-09 18:30:20:500
-0.017059;0.246154;9.81952;0.003292;0.030825;0.015263;-0.020351;0.215329;9.80425;-0.001198;-0.001332;-0.000666;2014-09-09 18:30:21:300
-0.017059;0.246154;9.81952;0.003292;0.030825;0.015263;-0.020351;0.215329;9.80425;-0.001198;-0.001332;-0.000666;2014-09-09 18:30:21:500
-0.017059;0.246154;9.81952;0.003292;0.030825;0.015263;-0.020351;0.215329;9.80425;-0.001198;-0.001332;-0.000666;2014-09-09 18:30:22:300
-0.017059;0.246154;9.81952;0.003292;0.030825;0.015263;-0.020351;0.215329;9.80425;-0.001198;-0.001332;-0.000666;2014-09-09 18:30:22:500
-0.017059;0.246154;9.81952;0.003292;0.030825;0.015263;-0.020351;0.215329;9.80425;-0.001198;-0.001332;-0.000666;2014-09-09 18:30:23:300
-0.017059;0.246154;9.81952;0.003292;0.030825;0.015263;-0.020351;0.215329;9.80425;-0.001198;-0.001332;-0.000666;2014-09-09 18:30:23:500
-0.017059;0.246154;9.81952;0.003292;0.030825;0.015263;-0.020351;0.215329;9.80425;-0.001198;-0.001332;-0.000666;2014-09-09 18:30:24:300
-0.017059;0.246154;9.81952;0.003292;0.030825;0.015263;-0.020351;0.215329;9.80425;-0.001198;-0.001332;-0.000666;2014-09-09 18:30:24:500
-0.017059;0.246154;9.81952;0.003292;0.030825;0.015263;-0.020351;0.215329;9.80425;-0.001198;-0.001332;-0.000666;2014-09-09 18:30:25:300
-0.017059;0.246154;9.81952;0.003292;0.030825;0.015263;-0.020351;0.215329;9.80425;-0.001198;-0.001332;-0.000666;2014-09-09 18:30:25:500
-0.017059;0.246154;9.81952;0.003292;0.030825;0.015263;-0.020351;0.215329;9.80425;-0.001198;-0.001332;-0.000666;2014-09-09 18:30:26:300
-0.017059;0.246154;9.81952;0.003292;0.030825;0.015263;-0.020351;0.215329;9.80425;-0.001198;-0.001332;-0.000666;2014-09-09 18:30:26:500
-0.017059;0.246154;9.81952;0.003292;0.030825;0.015263;-0.020351;0.215329;9.80425;-0.001198;-0.001332;-0.000666;2014-09-09 18:30:27:300
-0.017059;0.246154;9.81952;0.003292;0.030825;0.015263;-0.020351;0.215329;9.80425;-0.001198;-0.001332;-0.000666;2014-09-09 18:30:27:500
-0.017059;0.246154;9.81952;0.003292;0.030825;0.015263;-0.020351;0.215329;9.80425;-0.001198;-0.001332;-0.000666;2014-09-09 18:30:28:300
-0.017059;0.246154;9.81952;0.003292;0.030825;0.015263;-0.020351;0.215329;9.80425;-0.001198;-0.001332;-0.000666;2014-09-09 18:30:28:500
-0.017059;0.246154;9.81952;0.003292;0.030825;0.015263;-0.020351;0.215329;9.80425;-0.001198;-0.001332;-0.000666;2014-09-09 18:30:29:300
-0.017059;0.246154;9.81952;0.003292;0.030825;0.015263;-0.020351;0.215329;9.80425;-0.001198;-0.001332;-0.000666;2014-09-09 18:30:29:500
-0.017059;0.246154;9.81952;0.003292;0.030825;0.015263;-0.020351;0.215329;9.80425;-0.001198;-0.001332;-0.000666;2014-09-09 18:30:30:300
-0.017059;0.246154;9.81952;0.003292;0.030825;0.015263;-0.020351;0.215329;9.80425;-0.001198;-0.001332;-0.000666;2014-09-09 18:30:30:500
-0.017059;0.246154;9.81952;0.003292;0.030825;0.015263;-0.020351;0.215329;9.80425;-0.001198;-0.001332;-0.000666;2014-09-09 18:30:31:300
-0.017059;0.246154;9.81952;0.003292;0.030825;0.015263;-0.020351;0.215329;9.80425;-0.001198;-0.001332;-0.000666;2014-09-09 18:30:31:500
-0.017059;0.246154;9.81952;0.003292;0.030825;0.015263;-0.020351;0.215329;9.80425;-0.001198;-0.001332;-0.000666;2014-09-09 18:30:32:300
-0.017059;0.246154;9.81952;0.003292;0.030825;0.015263;-0.020351;0.215329;9.80425;-0.001198;-0.001332;-0.000666;2014-09-09 18:30:32:500
-0.017059;0.246154;9.81952;0.003292;0.030825;0.015263;-0.020351;0.215329;9.80425;-0.001198;-0.001332;-0.000666;2014-09-09 18:30:33:300
-0.017059;0.246154;9.81952;0.003292;0.030825;0.015263;-0.020351;0.215329;9.80425;-0.001198;-0.001332;-0.000666;2014-09-09 18:30:33:500
-0.017059;0.246154;9.81952;0.003292;0.030825;0.015263;-0.020351;0.215329;9.80425;-0.001198;-0.001332;-0.000666;2014-09-09 18:30:34:300
-0.017059;0.246154;9.81952;0.003292;0.030825;0.015263;-0.020351;0.215329;9.80425;-0.001198;-0.001332;-0.000666;2014-09-09 18:30:34:500
-0.017059;0.246154;9.81952;0.003292;0.030825;0.015263;-0.020351;0.215329;9.80425;-0.001198;-0.001332;-0.000666;2014-09-09 18:30:35:300
-0.017059;0.246154;9.81952;0.003292;0.030825;0.015263;-0.020351;0.215329;9.80425;-0.001198;-0.001332;-0.000666;2014-09-09 18:30:35:500
-0.017059;0.246154;9.81952;0.003292;0.030825;0.015263;-0.020351;0.215329;9.80425;-0.001198;-0.001332;-0.000666;2014-09-09 18:30:36:300
-0.017059;0.246154;9.81952;0.003292;0.030825;0.015263;-0.020351;0.215329;9.80425;-0.001198;-0.001332;-0.000666;2014-09-09 18:30:36:500
-0.017059;0.246154;9.81952;0.003292;0.030825;0.015263;-0.020351;0.215329;9.80425;-0.001198;-0.001332;-0.000666;2014-09-09 18:30:37:300
-0.017059;0.246154;9.81952;0.003292;0.030825;0.015263;-0.020351;0.215329;9.80425;-0.001198;-0.001332;-0.000666;2014-09-09 18:30:37:500
-0.017059;0.246154;9.81952;0.003292;0.030825;0.015263;-0.020351;0.215329;9.80425;-0.001198;-0.001332;-0.000666;2014-09-09 18:30:38:300
-0.017059;0.246154;9.81952;0.003292;0.030825;0.015263;-0.020351;0.215329;9.80425;-0.001198;-0.001332;-0.000666;2014-09-09 18:30:38:500
-0.017059;0.246154;9.81952;0.003292;0.030825;0.015263;-0.020351;0.215329;9.80425;-0.001198;-0.001332;-0.000666;2014-09-09 18:30:39:300
-0.017059;0.246154;9.81952;0.003292;0.030825;0.015263;-0.020351;0.215329;9.80425;-0.001198;-0.001332;-0.000666;2014-09-09 18:30:39:500
-0.017059;0.246154;9.81952;0.003292;0.030825;0.015263;-0.020351;0.215329;9.80425;-0.001198;-0.001332;-0.000666;2014-09-09 18:30:40:300
-0.017059;0.246154;9.81952;0.003292;0.030825;0.015263;-0.020351;0.215329;9.80425;-0.001198;-0.001332;-0.000666;2014-09-09 18:30:40:500
-0.017059;0.246154;9.81952;0.003292;0.030825;0.015263;-0.020351;0.215329;9.80425;-0.001198;-0.001332;-0.000666;2014-09-09 18:30:41:300
-0.017059;0.246154;9.81952;0.003292;0.030825;0.015263;-0.020351;0.215329;9.80425;-0.001198;-0.001332;-0.000666;2014-09-09 18:30:41:500
-0.017059;0.246154;9.81952;0.003292;0.030825;0.015263;-0.020351;0.215329;9.80425;-0.001198;-0.001332;-0.000666;2014-09-09 18:30:42:300
-0.017059;0.246154;9.81952;0.003292;0.030825;0.015263;-0.020351;0.215329;9.80425;-0.001198;-0.001332;-0.000666;2014-09-09 18:30:42:500
-0.017059;0.246154;9.81952;0.003292;0.030825;0.015263;-0.020351;0.215329;9.80425;-0.001198;-0.001332;-0.000666;2014-09-09 18:30:43:300
-0.017059;0.246154;9.81952;0.003292;0.030825;0.015263;-0.020351;0.215329;9.80425;-0.001198;-0.001332;-0.000666;2014-09-09 18:30:43:500
-0.017059;0.246154;9.81952;0.003292;0.030825;0.015263;-0.020351;0.215329;9.80425;-0.001198;-0.001332;-0.000666;2014-09-09 18:30:44:300
-0.017059;0.246154;9.81952;0.003292;0.030825;0.015263;-0.020351;0.215329;9.80425;-0.001198;-0.001332;-0.000666;2014-09-09 18:30:44:500
-0.017059;0.246154;9.81952;0.003292;0.030825;0.015263;-0.020351;0.215329;9.80425;-0.001198;-0.001332;-0.000666;2014-09-09 18:30:45:300
-0.017059;0.246154;9.81952;0.003292;0.030825;0.015263;-0.020351;0.215329;9.80425;-0.001198;-0.001332;-0.000666;2014-09-09 18:30:45:500
-0.017059;0.246154;9.81952;0.003292;0.030825;0.015263;-0.020351;0.215329;9.80425;-0.001198;-0.001332;-0.000666;2014-09-09 18:30:46:300
-0.017059;0.246154;9.81952;0.003292;0.030825;0.015263;-0.020351;0.215329;9.80425;-0.001198;-0.001332;-0.000666;2014-09-09 18:30:46:500
-0.017059;0.246154;9.81952;0.003292;0.030825;0.015263;-0.020351;0.215329;9.80425;-0.001198;-0.001332;-0.000666;2014-09-09 18:30:47:300
-0.017059;0.246154;9.81952;0.003292;0.030825;0.015263;-0.020351;0.215329;9.80425;-0.001198;-0.001332;-0.000666;2014-09-09 18:30:47:500
-0.017059;0.246154;9.81952;0.003292;0.030825;0.015263;-0.020351;0.215329;9.80425;-0.001198;-0.001332;-0.000666;2014-09-09 18:30:48:300
-0.017059;0.246154;9.81952;0.003292;0.030825;0.015263;-0.020351;0.215329;9.80425;-0.001198;-0.001332;-0.000666;2014-09-09 18:30:48:500
-0.017059;0.246154;9.81952;0.003292;0.030825;0.015263;-0.020351;0.215329;9.80425;-0.001198;-0.001332;-0.000666;2014-09-09 18:30:49:300
-0.017059;0.246154;9.81952;0.003292;0.030825;0.015263;-0.020351;0.215329;9.80425;-0.001198;-0.001332;-0.000666;2014-09-09 18:30:49:500
-0.017059;0.246154;9.81952;0.003292;0.030825;0.015263;-0.020351;0.215329;9.80425;-0.001198;-0.001332;-0.000666;2014-09-09 18:30:50:300
-0.017059;0.246154;9.81952;0.003292;0.030825;0.015263;-0.020351;0.215329;9.80425;-0.001198;-0.001332;-0.000666;2014-09-09 18:30:50:500
-0.017059;0.246154;9.81952;0.003292;0.030825;0.015263;-0.020351;0.215329;9.80425;-0.001198;-0.001332;-0.000666;2014-09-09 18:30:51:300
-0.017059;0.246154;9.81952;0.003292;0.030825;0.015263;-0.020351;0.215329;9.80425;-0.001198;-0.001332;-0.000666;2014-09-09 18:30:51:500
-0.017059;0.246154;9.81952;0.003292;0.030825;0.015263;-0.020351;0.215329;9.80425;-0.001198;-0.001332;-0.000666;2014-09-09 18:30:52:300
-0.017059;0.246154;9.81952;0.003292;0.030825;0.015263;-0.020351;0.215329;9.80425;-0.001198;-0.001332;-0.000666;2014-09-09 18:30:52:500
-0.017059;0.246154;9.81952;0.003292;0.030825;0.015263;-0.020351;0.215329;9.80425;-0.001198;-0.001332;-0.000666;2014-09-09 18:30:53:300
-0.017059;0.246154;9.81952;0.003292;0.030825;0.015263;-0.020351;0.215329;9.80425;-0.001198;-0.001332;-0.000666;2014-09-09 18:30:53:500
-0.017059;0.246154;9.81952;0.003292;0.030825;0.015263;-0.020351;0.215329;9.80425;-0.001198;-0.001332;-0.000666;2014-09-09 18:30:54:300
-0.017059;0.246154;9.81952;0.003292;0.030825;0.015263;-0.020351;0.215329;9.80425;-0.001198;-0.001332;-0.000666;2014-09-09 18:30:54:500
-0.017059;0.246154;9.81952;0.003292;0.030825;0.015263;-0.020351;0.215329;9.80425;-0.001198;-0.001332;-0.000666;2014-09-09 18:30:55:300
-0.017059;0.246154;9.81952;0.003292;0.030825;0.015263;-0.020351;0.215329;9.80425;-0.001198;-0.001332;-0.000666;2014-09-09 18:30:55:500
-0.017059;0.246154;9.81952;0.003292;0.030825;0.015263;-0.020351;0.215329;9.80425;-0.001198;-0.001332;-0.000666;2014-09-09 18:30:56:300
-0.017059;0.246154;9.81952;0.003292;0.030825;0.015263;-0.020351;0.215329;9.80425;-0.001198;-0.001332;-0.000666;2014-09-09 18:30:56:500
-0.017059;0.246154;9.81952;0.003292;0.030825;0.015263;-0.020351;0.215329;9.80425;-0.001198;-0.001332;-0.000666;2014-09-09 18:30:57:300
-0.017059;0.246154;9.81952;0.003292;0.030825;0.015263;-0.020351;0.215329;9.80425;-0.001198;-0.001332;-0.000666;2014-09-09 18:30:57:500
-0.017059;0.246154;9.81952;0.003292;0.030825;0.015263;-0.020351;0.215329;9.80425;-0.001198;-0.001332;-0.000666;2014-09-09 18:30:58:300
-0.017059;0.246154;9.81952;0.003292;0.030825;0.015263;-0.020351;0.215329;9.80425;-0.001198;-0.001332;-0.000666;2014-09-09 18:30:58:500
-0.017059;0.246154;9.81952;0.003292;0.030825;0.015263;-0.020351;0.215329;9.80425;-0.001198;-0.001332;-0.000666;2014-09-09 18:30:59:300
-0.017059;0.246154;9.81952;0.003292;0.030825;0.015263;-0.020351;0.215329;9.80425;-0.001198;-0.001332;-0.000666;2014-09-09 18:30:59:500
-0.017059;0.246154;9.81952;0.003292;0.030825;0.015263;-0.020351;0.215329;9.80425;-0.001198;-0.001332;-0.000666;2014-09-09 18:31:00:300
-0.017059;0.246154;9.81952;0.003292;0.030825;0.015263;-0.020351;0.215329;9.80425;-0.001198;-0.001332;-0.000666;2014-09-09 18:31:00:500
-0.017059;0.246154;9.81952;0.003292;0.030825;0.015263;-0.020351;0.215329;9.80425;-0.001198;-0.001332;-0.000666;2014-09-09 18:31:01:300
-0.017059;0.246154;9.81952;0.003292;0.030825;0.015263;-0.020351;0.215329;9.80425;-0.001198;-0.001332;-0.000666;2014-09-09 18:31:01:500
-0.017059;0.246154;9.81952;0.003292;0.030825;0.015263;-0.020351;0.215329;9.80425;-0.001198;-0.001332;-0.000666;2014-09-09 18:31:02:300
-0.017059;0.246154;9.81952;0.003292;0.030825;0.015263;-0.020351;0.215329;9.80425;-0.001198;-0.001332;-0.000666;2014-09-09 18:31:02:500
-0.017059;0.246154;9.81952;0.003292;0.030825;0.015263;-0.020351;0.215329;9.80425;-0.001198;-0.001332;-0.000666;2014-09-09 18:31:03:300
-0.017059;0.246154;9.81952;0.003292;0.030825;0.015263;-0.020351;0.215329;9.80425;-0.001198;-0.001332;-0.000666;2014-09-09 18:31:03:500
-0.017059;0.246154;9.81952;0.003292;0.030825;0.015263;-0.020351;0.215329;9.80425;-0.001198;-0.001332;-0.000666;2014-09-09 18:31:04:300
-0.017059;0.246154;9.81952;0.003292;0.030825;0.015263;-0.020351;0.215329;9.80425;-0.001198;-0.001332;-0.000666;2014-09-09 18:31:04:500
-0.017059;0.246154;9.81952;0.003292;0.030825;0.015263;-0.020351;0.215329;9.80425;-0.001198;-0.001332;-0.000666;2014-09-09 18:31:05:300
-0.017059;0.246154;9.81952;0.003292;0.030825;0.015263;-0.020351;0.215329;9.80425;-0.001198;-0.001332;-0.000666;2014-09-09 18:31:05:500
-0.017059;0.246154;9.81952;0.003292;0.030825;0.015263;-0.020351;0.215329;9.80425;-0.001198;-0.001332;-0.000666;2014-09-09 18:31:06:300
-0.017059;0.246154;9.81952;0.003292;0.030825;0.015263;-0.020351;0.215329;9.80425;-0.001198;-0.001332;-0.000666;2014-09-09 18:31:06:500
-0.017059;0.246154;9.81952;0.003292;0.030825;0.015263;-0.020351;0.215329;9.80425;-0.001198;-0.001332;-0.000666;2014-09-09 18:31:07:300
-0.017059;0.246154;9.81952;0.003292;0.030825;0.015263;-0.020351;0.215329;9.80425;-0.001198;-0.001332;-0.000666;2014-09-09 18:31:07:500
-0.017059;0.246154;9.81952;0.003292;0.030825;0.015263;-0.020351;0.215329;9.80425;-0.001198;-0.001332;-0.000666;2014-09-09 18:31:08:300
-0.017059;0.246154;9.81952;0.003292;0.030825;0.015263;-0.020351;0.215329;9.80425;-0.001198;-0.001332;-0.000666;2014-09-09 18:31:08:500
-0.017059;0.246154;9.81952;0.003292;0.030825;0.015263;-0.020351;0.215329;9.80425;-0.001198;-0.001332;-0.000666;2014-09-09 18:31:09:300
-0.017059;0.246154;9.81952;0.003292;0.030825;0.015263;-0.020351;0.215329;9.80425;-0.001198;-0.001332;-0.000666;2014-09-09 18:31:09:500
-0.017059;0.246154;9.81952;0.003292;0.030825;0.015263;-0.020351;0.215329;9.80425;-0.001198;-0.001332;-0.000666;2014-09-09 18:31:10:300
-0.017059;0.246154;9.81952;0.003292;0.030825;0.015263;-0.020351;0.215329;9.80425;-0.001198;-0.001332;-0.000666;2014-09-09 18:31:10:500
-0.017059;0.246154;9.81952;0.003292;0.030825;0.015263;-0.020351;0.215329;9.80425;-0.001198;-0.001332;-0.000666;2014-09-09 18:31:11:300
-0.017059;0.246154;9.81952;0.003292;0.030825;0.015263;-0.020351;0.215329;9.80425;-0.001198;-0.001332;-0.000666;2014-09-09 18:31:11:500
-0.017059;0.246154;9.81952;0.003292;0.030825;0.015263;-0.020351;0.215329;9.80425;-0.001198;-0.001332;-0.000666;2014-09-09 18:31:12:300
-0.017059;0.246154;9.81952;0.003292;0.030825;0.015263;-0.020351;0.215329;9.80425;-0.001198;-0.001332;-0.000666;2014-09-09 18:31:12:500
-0.017059;0.246154;9.81952;0.003292;0.030825;0.015263;-0.020351;0.215329;9.80425;-0.001198;-0.001332;-0.000666;2014-09-09 18:31:13:300
-0.017059;0.246154;9.81952;0.003292;0.030825;0.015263;-0.020351;0.215329;9.80425;-0.001198;-0.001332;-0.000666;2014-09-09 18:31:13:500
-0.017059;0.246154;9.81952;0.003292;0.030825;0.015263;-0.020351;0.215329;9.80425;-0.001198;-0.001332;-0.000666;2014-09-09 18:31:14:300
-0.017059;0.246154;9.81952;0.003292;0.030825;0.015263;-0.020351;0.215329;9.80425;-0.001198;-0.001332;-0.000666;2014-09-09 18:31:14:500
-0.017059;0.246154;9.81952;0.003292;0.030825;0.015263;-0.020351;0.215329;9.80425;-0.001198;-0.001332;-0.000666;2014-09-09 18:31:15:300
-0.017059;0.246154;9.81952;0.003292;0.030825;0.015263;-0.020351;0.215329;9.80425;-0.001198;-0.001332;-0.000666;2014-09-09 18:31:15:500
-0.017059;0.246154;9.81952;0.003292;0.030825;0.015263;-0.020351;0.215329;9.80425;-0.001198;-0.001332;-0.000666;2014-09-09 18:31:16:300
-0.017059;0.246154;9.81952;0.003292;0.030825;0.015263;-0.020351;0.215329;9.80425;-0.001198;-0.001332;-0.000666;2014-09-09 18:31:16:500
-0.017059;0.246154;9.81952;0.003292;0.030825;0.015263;-0.020351;0.215329;9.80425;-0.001198;-0.001332;-0.000666;2014-09-09 18:31:17:300
-0.017059;0.246154;9.81952;0.003292;0.030825;0.015263;-0.020351;0.215329;9.80425;-0.001198;-0.001332;-0.000666;2014-09-09 18:31:17:500
-0.017059;0.246154;9.81952;0.003292;0.030825;0.015263;-0.020351;0.215329;9.80425;-0.001198;-0.001332;-0.000666;2014-09-09 18:31:18:300
-0.017059;0.246154;9.81952;0.003292;0.030825;0.015263;-0.020351;0.215329;9.80425;-0.001198;-0.001332;-0.000666;2014-09-09 18:31:18:500
-0.017059;0.246154;9.81952;0.003292;0.030825;0.015263;-0.020351;0.215329;9.80425;-0.001198;-0.001332;-0.000666;2014-09-09 18:31:19:300
-0.017059;0.246154;9.81952;0.003292;0.030825;0.015263;-0.020351;0.215329;9.80425;-0.001198;-0.001332;-0.000666;2014-09-09 18:31:19:500
-0.017059;0.246154;9.81952;0.003292;0.030825;0.015263;-0.020351;0.215329;9.80425;-0.001198;-0.001332;-0.000666;2014-09-09 18:31:20:300
-0.017059;0.246154;9.81952;0.003292;0.030825;0.015263;-0.020351;0.215329;9.80425;-0.001198;-0.001332;-0.000666;2014-09-09 18:31:20:500
-0.017059;0.246154;9.81952;0.003292;0.030825;0.015263;-0.020351;0.215329;9.80425;-0.001198;-0.001332;-0.000666;2014-09-09 18:31:21:300
-0.017059;0.246154;9.81952;0.003292;0.030825;0.015263;-0.020351;0.215329;9.80425;-0.001198;-0.001332;-0.000666;2014-09-09 18:31:21:500
-0.017059;0.246154;9.81952;0.003292;0.030825;0.015263;-0.020351;0.215329;9.80425;-0.001198;-0.001332;-0.000666;2014-09-09 18:31:22:300
-0.017059;0.246154;9.81952;0.003292;0.030825;0.015263;-0.020351;0.215329;9.80425;-0.001198;-0.001332;-0.000666;2014-09-09 18:31:22:500
-0.017059;0.246154;9.81952;0.003292;0.030825;0.015263;-0.020351;0.215329;9.80425;-0.001198;-0.001332;-0.000666;2014-09-09 18:31:23:300
-0.017059;0.246154;9.81952;0.003292;0.030825;0.015263;-0.020351;0.215329;9.80425;-0.001198;-0.001332;-0.000666;2014-09-09 18:31:23:500
-0.017059;0.246154;9.81952;0.003292;0.030825;0.015263;-0.020351;0.215329;9.80425;-0.001198;-0.001332;-0.000666;2014-09-09 18:31:24:300
-0.017059;0.246154;9.81952;0.003292;0.030825;0.015263;-0.020351;0.215329;9.80425;-0.001198;-0.001332;-0.000666;2014-09-09 18:31:24:500
-0.017059;0.246154;9.81952;0.003292;0.030825;0.015263;-0.020351;0.215329;9.80425;-0.001198;-0.001332;-0.000666;2014-09-09 18:31:25:300
-0.017059;0.246154;9.81952;0.003292;0.030825;0.015263;-0.020351;0.215329;9.80425;-0.001198;-0.001332;-0.000666;2014-09-09 18:31:25:500
-0.017059;0.246154;9.81952;0.003292;0.030825;0.015263;-0.020351;0.215329;9.80425;-0.001198;-0.001332;-0.000666;2014-09-09 18:31:26:300
-0.017059;0.246154;9.81952;0.003292;0.030825;0.015263;-0.020351;0.215329;9.80425;-0.001198;-0.001332;-0.000666;2014-09-09 18:31:26:500
-0.017059;0.246154;9.81952;0.003292;0.030825;0.015263;-0.020351;0.215329;9.80425;-0.001198;-0.001332;-0.000666;2014-09-09 18:31:27:300
-0.017059;0.246154;9.81952;0.003292;0.030825;0.015263;-0.020351;0.215329;9.80425;-0.001198;-0.001332;-0.000666;2014-09-09 18:31:27:500
-0.017059;0.246154;9.81952;0.003292;0.030825;0.015263;-0.020351;0.215329;9.80425;-0.001198;-0.001332;-0.000666;2014-09-09 18:31:28:300
-0.017059;0.246154;9.81952;0.003292;0.030825;0.015263;-0.020351;0.215329;9.80425;-0.001198;-0.001332;-0.000666;2014-09-09 18:31:28:500
-0.017059;0.246154;9.81952;0.003292;0.030825;0.015263;-0.020351;0.215329;9.80425;-0.001198;-0.001332;-0.000666;2014-09-09 18:31:29:300
-0.017059;0.246154;9.81952;0.003292;0.030825;0.015263;-0.020351;0.215329;9.80425;-0.001198;-0.001332;-0.000666;2014-09-09 18:31:29:500
-0.017059;0.246154;9.81952;0.003292;0.030825;0.015263;-0.020351;0.215329;9.80425;-0.001198;-0.001332;-0.000666;2014-09-09 18:31:30:300
-0.017059;0.246154;9.81952;0.003292;0.030825;0.015263;-0.020351;0.215329;9.80425;-0.001198;-0.001332;-0.000666;2014-09-09 18:31:30:500
-0.017059;0.246154;9.81952;0.003292;0.030825;0.015263;-0.020351;0.215329;9.80425;-0.001198;-0.001332;-0.000666;2014-09-09 18:31:31:300
-0.017059;0.246154;9.81952;0.003292;0.030825;0.015263;-0.020351;0.215329;9.80425;-0.001198;-0.001332;-0.000666;2014-09-09 18:31:31:500
-0.017059;0.246154;9.81952;0.003292;0.030825;0.015263;-0.020351;0.215329;9.80425;-0.001198;-0.001332;-0.000666;2014-09-09 18:31:32:300
-0.017059;0.246154;9.81952;0.003292;0.030825;0.015263;-0.020351;0.215329;9.80425;-0.001198;-0.001332;-0.000666;2014-09-09 18:31:32:500
-0.017059;0.246154;9.81952;0.003292;0.030825;0.015263;-0.020351;0.215329;9.80425;-0.001198;-0.001332;-0.000666;2014-09-09 18:31:33:300
-0.017059;0.246154;9.81952;0.003292;0.030825;0.015263;-0.020351;0.215329;9.80425;-0.001198;-0.001332;-0.000666;2014-09-09 18:31:33:500
-0.017059;0.246154;9.81952;0.003292;0.030825;0.015263;-0.020351;0.215329;9.80425;-0.001198;-0.001332;-0.000666;2014-09-09 18:31:34:300
-0.017059;0.246154;9.81952;0.003292;0.030825;0.015263;-0.020351;0.215329;9.80425;-0.001198;-0.001332;-0.000666;2014-09-09 18:31:34:500
-0.017059;0.246154;9.81952;0.003292;0.030825;0.015263;-0.020351;0.215329;9.80425;-0.001198;-0.001332;-0.000666;2014-09-09 18:31:35:300
-0.017059;0.246154;9.81952;0.003292;0.030825;0.015263;-0.020351;0.215329;9.80425;-0.001198;-0.001332;-0.000666;2014-09-09 18:31:35:500
-0.017059;0.246154;9.81952;0.003292;0.030825;0.015263;-0.020351;0.215329;9.80425;-0.001198;-0.001332;-0.000666;2014-09-09 18:31:36:300
-0.017059;0.246154;9.81952;0.003292;0.030825;0.015263;-0.020351;0.215329;9.80425;-0.001198;-0.001332;-0.000666;2014-09-09 18:31:36:500
-0.017059;0.246154;9.81952;0.003292;0.030825;0.015263;-0.020351;0.215329;9.80425;-0.001198;-0.001332;-0.000666;2014-09-09 18:31:37:300
-0.017059;0.246154;9.81952;0.003292;0.030825;0.015263;-0.020351;0.215329;9.80425;-0.001198;-0.001332;-0.000666;2014-09-09 18:31:37:500
-0.017059;0.246154;9.81952;0.003292;0.030825;0.015263;-0.020351;0.215329;9.80425;-0.001198;-0.001332;-0.000666;2014-09-09 18:31:38:300
-0.017059;0.246154;9.81952;0.003292;0.030825;0.015263;-0.020351;0.215329;9.80425;-0.001198;-0.001332;-0.000666;2014-09-09 18:31:38:500
-0.017059;0.246154;9.81952;0.003292;0.030825;0.015263;-0.020351;0.215329;9.80425;-0.001198;-0.001332;-0.000666;2014-09-09 18:31:39:300
-0.017059;0.246154;9.81952;0.003292;0.030825;0.015263;-0.020351;0.215329;9.80425;-0.001198;-0.001332;-0.000666;2014-09-09 18:31:39:500
-0.017059;0.246154;9.81952;0.003292;0.030825;0.015263;-0.020351;0.215329;9.80425;-0.001198;-0.001332;-0.000666;2014-09-09 18:31:40:300
-0.017059;0.246154;9.81952;0.003292;0.030825;0.015263;-0.020351;0.215329;9.80425;-0.001198;-0.001332;-0.000666;2014-09-09 18:31:40:500
-0.017059;0.246154;9.81952;0.003292;0.030825;0.015263;-0.020351;0.215329;9.80425;-0.001198;-0.001332;-0.000666;2014-09-09 18:31:41:300
-0.017059;0.246154;9.81952;0.003292;0.030825;0.015263;-0.020351;0.215329;9.80425;-0.001198;-0.001332;-0.000666;2014-09-09 18:31:41:500
-0.017059;0.246154;9.81952;0.003292;0.030825;0.015263;-0.020351;0.215329;9.80425;-0.001198;-0.001332;-0.000666;2014-09-09 18:31:42:300
-0.017059;0.246154;9.81952;0.003292;0.030825;0.015263;-0.020351;0.215329;9.80425;-0.001198;-0.001332;-0.000666;2014-09-09 18:31:42:500
-0.017059;0.246154;9.81952;0.003292;0.030825;0.015263;-0.020351;0.215329;9.80425;-0.001198;-0.001332;-0.000666;2014-09-09 18:31:43:300
-0.017059;0.246154;9.81952;0.003292;0.030825;0.015263;-0.020351;0.215329;9.80425;-0.001198;-0.001332;-0.000666;2014-09-09 18:31:43:500
-0.017059;0.246154;9.81952;0.003292;0.030825;0.015263;-0.020351;0.215329;9.80425;-0.001198;-0.001332;-0.000666;2014-09-09 18:31:44:300
-0.017059;0.246154;9.81952;0.003292;0.030825;0.015263;-0.020351;0.215329;9.80425;-0.001198;-0.001332;-0.000666;2014-09-09 18:31:44:500
-0.017059;0.246154;9.81952;0.003292;0.030825;0.015263;-0.020351;0.215329;9.80425;-0.001198;-0.001332;-0.000666;2014-09-09 18:31:45:300
-0.017059;0.246154;9.81952;0.003292;0.030825;0.015263;-0.020351;0.215329;9.80425;-0.001198;-0.001332;-0.000666;2014-09-09 18:31:45:500
-0.017059;0.246154;9.81952;0.003292;0.030825;0.015263;-0.020351;0.215329;9.80425;-0.001198;-0.001332;-0.000666;2014-09-09 18:31:46:300
-0.017059;0.246154;9.81952;0.003292;0.030825;0.015263;-0.020351;0.215329;9.80425;-0.001198;-0.001332;-0.000666;2014-09-09 18:31:46:500
-0.017059;0.246154;9.81952;0.003292;0.030825;0.015263;-0.020351;0.215329;9.80425;-0.001198;-0.001332;-0.000666;2014-09-09 18:31:47:300
-0.017059;0.246154;9.81952;0.003292;0.030825;0.015263;-0.020351;0.215329;9.80425;-0.001198;-0.001332;-0.000666;2014-09-09 18:31:47:500
-0.017059;0.246154;9.81952;0.003292;0.030825;0.015263;-0.020351;0.215329;9.80425;-0.001198;-0.001332;-0.000666;2014-09-09 18:31:48:300
-0.017059;0.246154;9.81952;0.003292;0.030825;0.015263;-0.020351;0.215329;9.80425;-0.001198;-0.001332;-0.000666;2014-09-09 18:31:48:500
-0.017059;0.246154;9.81952;0.003292;0.030825;0.015263;-0.020351;0.215329;9.80425;-0.001198;-0.001332;-0.000666;2014-09-09 18:31:49:300
-0.017059;0.246154;9.81952;0.003292;0.030825;0.015263;-0.020351;0.215329;9.80425;-0.001198;-0.001332;-0.000666;2014-09-09 18:31:49:500
-0.017059;0.246154;9.81952;0.003292;0.030825;0.015263;-0.020351;0.215329;9.80425;-0.001198;-0.001332;-0.000666;2014-09-09 18:31:50:300
-0.017059;0.246154;9.81952;0.003292;0.030825;0.015263;-0.020351;0.215329;9.80425;-0.001198;-0.001332;-0.000666;2014-09-09 18:31:50:500
-0.017059;0.246154;9.81952;0.003292;0.030825;0.015263;-0.020351;0.215329;9.80425;-0.001198;-0.001332;-0.000666;2014-09-09 18:31:51:300
-0.017059;0.246154;9.81952;0.003292;0.030825;0.015263;-0.020351;0.215329;9.80425;-0.001198;-0.001332;-0.000666;2014-09-09 18:31:51:500
-0.017059;0.246154;9.81952;0.003292;0.030825;0.015263;-0.020351;0.215329;9.80425;-0.001198;-0.001332;-0.000666;2014-09-09 18:31:52:300
-0.017059;0.246154;9.81952;0.003292;0.030825;0.015263;-0.020351;0.215329;9.80425;-0.001198;-0.001332;-0.000666;2014-09-09 18:31:52:500
-0.017059;0.246154;9.81952;0.003292;0.030825;0.015263;-0.020351;0.215329;9.80425;-0.001198;-0.001332;-0.000666;2014-09-09 18:31:53:300
-0.017059;0.246154;9.81952;0.003292;0.030825;0.015263;-0.020351;0.215329;9.80425;-0.001198;-0.001332;-0.000666;2014-09-09 18:31:53:500
-0.017059;0.246154;9.81952;0.003292;0.030825;0.015263;-0.020351;0.215329;9.80425;-0.001198;-0.001332;-0.000666;2014-09-09 18:31:54:300
-0.017059;0.246154;9.81952;0.003292;0.030825;0.015263;-0.020351;0.215329;9.80425;-0.001198;-0.001332;-0.000666;2014-09-09 18:31:54:500
-0.017059;0.246154;9.81952;0.003292;0.030825;0.015263;-0.020351;0.215329;9.80425;-0.001198;-0.001332;-0.000666;2014-09-09 18:31:55:300
-0.017059;0.246154;9.81952;0.003292;0.030825;0.015263;-0.020351;0.215329;9.80425;-0.001198;-0.001332;-0.000666;2014-09-09 18:31:55:500
-0.017059;0.246154;9.81952;0.003292;0.030825;0.015263;-0.020351;0.215329;9.80425;-0.001198;-0.001332;-0.000666;2014-09-09 18:31:56:300
-0.017059;0.246154;9.81952;0.003292;0.030825;0.015263;-0.020351;0.215329;9.80425;-0.001198;-0.001332;-0.000666;2014-09-09 18:31:56:500
-0.017059;0.246154;9.81952;0.003292;0.030825;0.015263;-0.020351;0.215329;9.80425;-0.001198;-0.001332;-0.000666;2014-09-09 18:31:57:300
-0.017059;0.246154;9.81952;0.003292;0.030825;0.015263;-0.020351;0.215329;9.80425;-0.001198;-0.001332;-0.000666;2014-09-09 18:31:57:500
-0.017059;0.246154;9.81952;0.003292;0.030825;0.015263;-0.020351;0.215329;9.80425;-0.001198;-0.001332;-0.000666;2014-09-09 18:31:58:300
-0.017059;0.246154;9.81952;0.003292;0.030825;0.015263;-0.020351;0.215329;9.80425;-0.001198;-0.001332;-0.000666;2014-09-09 18:31:58:500
-0.017059;0.246154;9.81952;0.003292;0.030825;0.015263;-0.020351;0.215329;9.80425;-0.001198;-0.001332;-0.000666;2014-09-09 18:31:59:300
-0.017059;0.246154;9.81952;0.003292;0.030825;0.015263;-0.020351;0.215329;9.80425;-0.001198;-0.001332;-0.000666;2014-09-09 18:31:59:500
-0.017059;0.246154;9.81952;0.003292;0.030825;0.015263;-0.020351;0.215329;9.80425;-0.001198;-0.001332;-0.000666;2014-09-09 18:32:00:300
-0.017059;0.246154;9.81952;0.003292;0.030825;0.015263;-0.020351;0.215329;9.80425;-0.001198;-0.001332;-0.000666;2014-09-09 18:32:00:500
-0.017059;0.246154;9.81952;0.003292;0.030825;0.015263;-0.020351;0.215329;9.80425;-0.001198;-0.001332;-0.000666;2014-09-09 18:32:01:300
-0.017059;0.246154;9.81952;0.003292;0.030825;0.015263;-0.020351;0.215329;9.80425;-0.001198;-0.001332;-0.000666;2014-09-09 18:32:01:500
-0.017059;0.246154;9.81952;0.003292;0.030825;0.015263;-0.020351;0.215329;9.80425;-0.001198;-0.001332;-0.000666;2014-09-09 18:32:02:300
-0.017059;0.246154;9.81952;0.003292;0.030825;0.015263;-0.020351;0.215329;9.80425;-0.001198;-0.001332;-0.000666;2014-09-09 18:32:02:500
-0.017059;0.246154;9.81952;0.003292;0.030825;0.015263;-0.020351;0.215329;9.80425;-0.001198;-0.001332;-0.000666;2014-09-09 18:32:03:300
-0.017059;0.246154;9.81952;0.003292;0.030825;0.015263;-0.020351;0.215329;9.80425;-0.001198;-0.001332;-0.000666;2014-09-09 18:32:03:500
-0.017059;0.246154;9.81952;0.003292;0.030825;0.015263;-0.020351;0.215329;9.80425;-0.001198;-0.001332;-0.000666;2014-09-09 18:32:04:300
-0.017059;0.246154;9.81952;0.003292;0.030825;0.015263;-0.020351;0.215329;9.80425;-0.001198;-0.001332;-0.000666;2014-09-09 18:32:04:500
-0.017059;0.246154;9.81952;0.003292;0.030825;0.015263;-0.020351;0.215329;9.80425;-0.001198;-0.001332;-0.000666;2014-09-09 18:32:05:300
-0.017059;0.246154;9.81952;0.003292;0.030825;0.015263;-0.020351;0.215329;9.80425;-0.001198;-0.001332;-0.000666;2014-09-09 18:32:05:500
-0.017059;0.246154;9.81952;0.003292;0.030825;0.015263;-0.020351;0.215329;9.80425;-0.001198;-0.001332;-0.000666;2014-09-09 18:32:06:300
-0.017059;0.246154;9.81952;0.003292;0.030825;0.015263;-0.020351;0.215329;9.80425;-0.001198;-0.001332;-0.000666;2014-09-09 18:32:06:500
-0.017059;0.246154;9.81952;0.003292;0.030825;0.015263;-0.020351;0.215329;9.80425;-0.001198;-0.001332;-0.000666;2014-09-09 18:32:07:300
-0.017059;0.246154;9.81952;0.003292;0.030825;0.015263;-0.020351;0.215329;9.80425;-0.001198;-0.001332;-0.000666;2014-09-09 18:32:07:500
-0.017059;0.246154;9.81952;0.003292;0.030825;0.015263;-0.020351;0.215329;9.80425;-0.001198;-0.001332;-0.000666;2014-09-09 18:32:08:300
-0.017059;0.246154;9.81952;0.003292;0.030825;0.015263;-0.020351;0.215329;9.80425;-0.001198;-0.001332;-0.000666;2014-09-09 18:32:08:500
-0.017059;0.246154;9.81952;0.003292;0.030825;0.015263;-0.020351;0.215329;9.80425;-0.001198;-0.001332;-0.000666;2014-09-09 18:32:09:300
-0.017059;0.246154;9.81952;0.003292;0.030825;0.015263;-0.020351;0.215329;9.80425;-0.001198;-0.001332;-0.000666;2014-09-09 18:32:09:500
-0.017059;0.246154;9.81952;0.003292;0.030825;0.015263;-0.020351;0.215329;9.80425;-0.001198;-0.001332;-0.000666;2014-09-09 18:32:10:300
-0.017059;0.246154;9.81952;0.003292;0.030825;0.015263;-0.020351;0.215329;9.80425;-0.001198;-0.001332;-0.000666;2014-09-09 18:32:10:500
-0.017059;0.246154;9.81952;0.003292;0.030825;0.015263;-0.020351;0.215329;9.80425;-0.001198;-0.001332;-0.000666;2014-09-09 18:32:11:300
-0.017059;0.246154;9.81952;0.003292;0.030825;0.015263;-0.020351;0.215329;9.80425;-0.001198;-0.001332;-0.000666;2014-09-09 18:32:11:500
-0.017059;0.246154;9.81952;0.003292;0.030825;0.015263;-0.020351;0.215329;9.80425;-0.001198;-0.001332;-0.000666;2014-09-09 18:32:12:300
-0.017059;0.246154;9.81952;0.003292;0.030825;0.015263;-0.020351;0.215329;9.80425;-0.001198;-0.001332;-0.000666;2014-09-09 18:32:12:500
-0.017059;0.246154;9.81952;0.003292;0.030825;0.015263;-0.020351;0.215329;9.80425;-0.001198;-0.001332;-0.000666;2014-09-09 18:32:13:300
-0.017059;0.246154;9.81952;0.003292;0.030825;0.015263;-0.020351;0.215329;9.80425;-0.001198;-0.001332;-0.000666;2014-09-09 18:32:13:500
-0.017059;0.246154;9.81952;0.003292;0.030825;0.015263;-0.020351;0.215329;9.80425;-0.001198;-0.001332;-0.000666;2014-09-09 18:32:14:300
-0.017059;0.246154;9.81952;0.003292;0.030825;0.015263;-0.020351;0.215329;9.80425;-0.001198;-0.001332;-0.000666;2014-09-09 18:32:14:500
-0.017059;0.246154;9.81952;0.003292;0.030825;0.015263;-0.020351;0.215329;9.80425;-0.001198;-0.001332;-0.000666;2014-09-09 18:32:15:300
-0.017059;0.246154;9.81952;0.003292;0.030825;0.015263;-0.020351;0.215329;9.80425;-0.001198;-0.001332;-0.000666;2014-09-09 18:32:15:500
-0.017059;0.246154;9.81952;0.003292;0.030825;0.015263;-0.020351;0.215329;9.80425;-0.001198;-0.001332;-0.000666;2014-09-09 18:32:16:300
-0.017059;0.246154;9.81952;0.003292;0.030825;0.015263;-0.020351;0.215329;9.80425;-0.001198;-0.001332;-0.000666;2014-09-09 18:32:16:500
-0.017059;0.246154;9.81952;0.003292;0.030825;0.015263;-0.020351;0.215329;9.80425;-0.001198;-0.001332;-0.000666;2014-09-09 18:32:17:300
-0.017059;0.246154;9.81952;0.003292;0.030825;0.015263;-0.020351;0.215329;9.80425;-0.001198;-0.001332;-0.000666;2014-09-09 18:32:17:500
-0.017059;0.246154;9.81952;0.003292;0.030825;0.015263;-0.020351;0.215329;9.80425;-0.001198;-0.001332;-0.000666;2014-09-09 18:32:18:300
-0.017059;0.246154;9.81952;0.003292;0.030825;0.015263;-0.020351;0.215329;9.80425;-0.001198;-0.001332;-0.000666;2014-09-09 18:32:18:500
-0.017059;0.246154;9.81952;0.003292;0.030825;0.015263;-0.020351;0.215329;9.80425;-0.001198;-0.001332;-0.000666;2014-09-09 18:32:19:300
-0.017059;0.246154;9.81952;0.003292;0.030825;0.015263;-0.020351;0.215329;9.80425;-0.001198;-0.001332;-0.000666;2014-09-09 18:32:19:500
-0.017059;0.246154;9.81952;0.003292;0.030825;0.015263;-0.020351;0.215329;9.80425;-0.001198;-0.001332;-0.000666;2014-09-09 18:32:20:300
-0.017059;0.246154;9.81952;0.003292;0.030825;0.015263;-0.020351;0.215329;9.80425;-0.001198;-0.001332;-0.000666;2014-09-09 18:32:20:500
-0.017059;0.246154;9.81952;0.003292;0.030825;0.015263;-0.020351;0.215329;9.80425;-0.001198;-0.001332;-0.000666;2014-09-09 18:32:21:300
-0.017059;0.246154;9.81952;0.003292;0.030825;0.015263;-0.020351;0.215329;9.80425;-0.001198;-0.001332;-0.000666;2014-09-09 18:32:21:500
-0.017059;0.246154;9.81952;0.003292;0.030825;0.015263;-0.020351;0.215329;9.80425;-0.001198;-0.001332;-0.000666;2014-09-09 18:32:22:300
-0.017059;0.246154;9.81952;0.003292;0.030825;0.015263;-0.020351;0.215329;9.80425;-0.001198;-0.001332;-0.000666;2014-09-09 18:32:22:500
-0.017059;0.246154;9.81952;0.003292;0.030825;0.015263;-0.020351;0.215329;9.80425;-0.001198;-0.001332;-0.000666;2014-09-09 18:32:23:300
-0.017059;0.246154;9.81952;0.003292;0.030825;0.015263;-0.020351;0.215329;9.80425;-0.001198;-0.001332;-0.000666;2014-09-09 18:32:23:500
-0.017059;0.246154;9.81952;0.003292;0.030825;0.015263;-0.020351;0.215329;9.80425;-0.001198;-0.001332;-0.000666;2014-09-09 18:32:24:300
-0.017059;0.246154;9.81952;0.003292;0.030825;0.015263;-0.020351;0.215329;9.80425;-0.001198;-0.001332;-0.000666;2014-09-09 18:32:24:500
-0.017059;0.246154;9.81952;0.003292;0.030825;0.015263;-0.020351;0.215329;9.80425;-0.001198;-0.001332;-0.000666;2014-09-09 18:32:25:300
-0.017059;0.246154;9.81952;0.003292;0.030825;0.015263;-0.020351;0.215329;9.80425;-0.001198;-0.001332;-0.000666;2014-09-09 18:32:25:500
-0.017059;0.246154;9.81952;0.003292;0.030825;0.015263;-0.020351;0.215329;9.80425;-0.001198;-0.001332;-0.000666;2014-09-09 18:32:26:300
-0.017059;0.246154;9.81952;0.003292;0.030825;0.015263;-0.020351;0.215329;9.80425;-0.001198;-0.001332;-0.000666;2014-09-09 18:32:26:500
-0.017059;0.246154;9.81952;0.003292;0.030825;0.015263;-0.020351;0.215329;9.80425;-0.001198;-0.001332;-0.000666;2014-09-09 18:32:27:300
-0.017059;0.246154;9.81952;0.003292;0.030825;0.015263;-0.020351;0.215329;9.80425;-0.001198;-0.001332;-0.000666;2014-09-09 18:32:27:500
-0.017059;0.246154;9.81952;0.003292;0.030825;0.015263;-0.020351;0.215329;9.80425;-0.001198;-0.001332;-0.000666;2014-09-09 18:32:28:300
-0.017059;0.246154;9.81952;0.003292;0.030825;0.015263;-0.020351;0.215329;9.80425;-0.001198;-0.001332;-0.000666;2014-09-09 18:32:28:500
-0.017059;0.246154;9.81952;0.003292;0.030825;0.015263;-0.020351;0.215329;9.80425;-0.001198;-0.001332;-0.000666;2014-09-09 18:32:29:300
-0.017059;0.246154;9.81952;0.003292;0.030825;0.015263;-0.020351;0.215329;9.80425;-0.001198;-0.001332;-0.000666;2014-09-09 18:32:29:500
-0.017059;0.246154;9.81952;0.003292;0.030825;0.015263;-0.020351;0.215329;9.80425;-0.001198;-0.001332;-0.000666;2014-09-09 18:32:30:300
-0.017059;0.246154;9.81952;0.003292;0.030825;0.015263;-0.020351;0.215329;9.80425;-0.001198;-0.001332;-0.000666;2014-09-09 18:32:30:500
-0.017059;0.246154;9.81952;0.003292;0.030825;0.015263;-0.020351;0.215329;9.80425;-0.001198;-0.001332;-0.000666;2014-09-09 18:32:31:300
-0.017059;0.246154;9.81952;0.003292;0.030825;0.015263;-0.020351;0.215329;9.80425;-0.001198;-0.001332;-0.000666;2014-09-09 18:32:31:500
-0.017059;0.246154;9.81952;0.003292;0.030825;0.015263;-0.020351;0.215329;9.80425;-0.001198;-0.001332;-0.000666;2014-09-09 18:32:32:300
-0.017059;0.246154;9.81952;0.003292;0.030825;0.015263;-0.020351;0.215329;9.80425;-0.001198;-0.001332;-0.000666;2014-09-09 18:32:32:500
-0.017059;0.246154;9.81952;0.003292;0.030825;0.015263;-0.020351;0.215329;9.80425;-0.001198;-0.001332;-0.000666;2014-09-09 18:32:33:300
-0.017059;0.246154;9.81952;0.003292;0.030825;0.015263;-0.020351;0.215329;9.80425;-0.001198;-0.001332;-0.000666;2014-09-09 18:32:33:500
-0.017059;0.246154;9.81952;0.003292;0.030825;0.015263;-0.020351;0.215329;9.80425;-0.001198;-0.001332;-0.000666;2014-09-09 18:32:34:300
-0.017059;0.246154;9.81952;0.003292;0.030825;0.015263;-0.020351;0.215329;9.80425;-0.001198;-0.001332;-0.000666;2014-09-09 18:32:34:500
-0.017059;0.246154;9.81952;0.003292;0.030825;0.015263;-0.020351;0.215329;9.80425;-0.001198;-0.001332;-0.000666;2014-09-09 18:32:35:300
-0.017059;0.246154;9.81952;0.003292;0.030825;0.015263;-0.020351;0.215329;9.80425;-0.001198;-0.001332;-0.000666;2014-09-09 18:32:35:500
-0.017059;0.246154;9.81952;0.003292;0.030825;0.015263;-0.020351;0.215329;9.80425;-0.001198;-0.001332;-0.000666;2014-09-09 18:32:36:300
-0.017059;0.246154;9.81952;0.003292;0.030825;0.015263;-0.020351;0.215329;9.80425;-0.001198;-0.001332;-0.000666;2014-09-09 18:32:36:500
-0.017059;0.246154;9.81952;0.003292;0.030825;0.015263;-0.020351;0.215329;9.80425;-0.001198;-0.001332;-0.000666;2014-09-09 18:32:37:300
-0.017059;0.246154;9.81952;0.003292;0.030825;0.015263;-0.020351;0.215329;9.80425;-0.001198;-0.001332;-0.000666;2014-09-09 18:32:37:500
-0.017059;0.246154;9.81952;0.003292;0.030825;0.015263;-0.020351;0.215329;9.80425;-0.001198;-0.001332;-0.000666;2014-09-09 18:32:38:300
-0.017059;0.246154;9.81952;0.003292;0.030825;0.015263;-0.020351;0.215329;9.80425;-0.001198;-0.001332;-0.000666;2014-09-09 18:32:38:500
-0.017059;0.246154;9.81952;0.003292;0.030825;0.015263;-0.020351;0.215329;9.80425;-0.001198;-0.001332;-0.000666;2014-09-09 18:32:39:300
-0.017059;0.246154;9.81952;0.003292;0.030825;0.015263;-0.020351;0.215329;9.80425;-0.001198;-0.001332;-0.000666;2014-09-09 18:32:39:500
-0.017059;0.246154;9.81952;0.003292;0.030825;0.015263;-0.020351;0.215329;9.80425;-0.001198;-0.001332;-0.000666;2014-09-09 18:32:40:300
-0.017059;0.246154;9.81952;0.003292;0.030825;0.015263;-0.020351;0.215329;9.80425;-0.001198;-0.001332;-0.000666;2014-09-09 18:32:40:500
-0.017059;0.246154;9.81952;0.003292;0.030825;0.015263;-0.020351;0.215329;9.80425;-0.001198;-0.001332;-0.000666;2014-09-09 18:32:41:300
-0.017059;0.246154;9.81952;0.003292;0.030825;0.015263;-0.020351;0.215329;9.80425;-0.001198;-0.001332;-0.000666;2014-09-09 18:32:41:500
-0.017059;0.246154;9.81952;0.003292;0.030825;0.015263;-0.020351;0.215329;9.80425;-0.001198;-0.001332;-0.000666;2014-09-09 18:32:42:300
-0.017059;0.246154;9.81952;0.003292;0.030825;0.015263;-0.020351;0.215329;9.80425;-0.001198;-0.001332;-0.000666;2014-09-09 18:32:42:500
-0.017059;0.246154;9.81952;0.003292;0.030825;0.015263;-0.020351;0.215329;9.80425;-0.001198;-0.001332;-0.000666;2014-09-09 18:32:43:300
-0.017059;0.246154;9.81952;0.003292;0.030825;0.015263;-0.020351;0.215329;9.80425;-0.001198;-0.001332;-0.000666;2014-09-09 18:32:43:500
-0.017059;0.246154;9.81952;0.003292;0.030825;0.015263;-0.020351;0.215329;9.80425;-0.001198;-0.001332;-0.000666;2014-09-09 18:32:44:300
-0.017059;0.246154;9.81952;0.003292;0.030825;0.015263;-0.020351;0.215329;9.80425;-0.001198;-0.001332;-0.000666;2014-09-09 18:32:44:500
-0.017059;0.246154;9.81952;0.003292;0.030825;0.015263;-0.020351;0.215329;9.80425;-0.001198;-0.001332;-0.000666;2014-09-09 18:32:45:300
-0.017059;0.246154;9.81952;0.003292;0.030825;0.015263;-0.020351;0.215329;9.80425;-0.001198;-0.001332;-0.000666;2014-09-09 18:32:45:500
-0.017059;0.246154;9.81952;0.003292;0.030825;0.015263;-0.020351;0.215329;9.80425;-0.001198;-0.001332;-0.000666;2014-09-09 18:32:46:300
-0.017059;0.246154;9.81952;0.003292;0.030825;0.015263;-0.020351;0.215329;9.80425;-0.001198;-0.001332;-0.000666;2014-09-09 18:32:46:500
-0.017059;0.246154;9.81952;0.003292;0.030825;0.015263;-0.020351;0.215329;9.80425;-0.001198;-0.001332;-0.000666;2014-09-09 18:32:47:300
-0.017059;0.246154;9.81952;0.003292;0.030825;0.015263;-0.020351;0.215329;9.80425;-0.001198;-0.001332;-0.000666;2014-09-09 18:32:47:500
-0.017059;0.246154;9.81952;0.003292;0.030825;0.015263;-0.020351;0.215329;9.80425;-0.001198;-0.001332;-0.000666;2014-09-09 18:32:48:300
-0.017059;0.246154;9.81952;0.003292;0.030825;0.015263;-0.020351;0.215329;9.80425;-0.001198;-0.001332;-0.000666;2014-09-09 18:32:48:500
-0.017059;0.246154;9.81952;0.003292;0.030825;0.015263;-0.020351;0.215329;9.80425;-0.001198;-0.001332;-0.000666;2014-09-09 18:32:49:300
-0.017059;0.246154;9.81952;0.003292;0.030825;0.015263;-0.020351;0.215329;9.80425;-0.001198;-0.001332;-0.000666;2014-09-09 18:32:49:500
-0.017059;0.246154;9.81952;0.003292;0.030825;0.015263;-0.020351;0.215329;9.80425;-0.001198;-0.001332;-0.000666;2014-09-09 18:32:50:300
-0.017059;0.246154;9.81952;0.003292;0.030825;0.015263;-0.020351;0.215329;9.80425;-0.001198;-0.001332;-0.000666;2014-09-09 18:32:50:500
-0.017059;0.246154;9.81952;0.003292;0.030825;0.015263;-0.020351;0.215329;9.80425;-0.001198;-0.001332;-0.000666;2014-09-09 18:32:51:300
-0.017059;0.246154;9.81952;0.003292;0.030825;0.015263;-0.020351;0.215329;9.80425;-0.001198;-0.001332;-0.000666;2014-09-09 18:32:51:500
-0.017059;0.246154;9.81952;0.003292;0.030825;0.015263;-0.020351;0.215329;9.80425;-0.001198;-0.001332;-0.000666;2014-09-09 18:32:52:300
-0.017059;0.246154;9.81952;0.003292;0.030825;0.015263;-0.020351;0.215329;9.80425;-0.001198;-0.001332;-0.000666;2014-09-09 18:32:52:500
-0.017059;0.246154;9.81952;0.003292;0.030825;0.015263;-0.020351;0.215329;9.80425;-0.001198;-0.001332;-0.000666;2014-09-09 18:32:53:300
-0.017059;0.246154;9.81952;0.003292;0.030825;0.015263;-0.020351;0.215329;9.80425;-0.001198;-0.001332;-0.000666;2014-09-09 18:32:53:500
-0.017059;0.246154;9.81952;0.003292;0.030825;0.015263;-0.020351;0.215329;9.80425;-0.001198;-0.001332;-0.000666;2014-09-09 18:32:54:300
-0.017059;0.246154;9.81952;0.003292;0.030825;0.015263;-0.020351;0.215329;9.80425;-0.001198;-0.001332;-0.000666;2014-09-09 18:32:54:500
-0.017059;0.246154;9.81952;0.003292;0.030825;0.015263;-0.020351;0.215329;9.80425;-0.001198;-0.001332;-0.000666;2014-09-09 18:32:55:300
-0.017059;0.246154;9.81952;0.003292;0.030825;0.015263;-0.020351;0.215329;9.80425;-0.001198;-0.001332;-0.000666;2014-09-09 18:32:55:500
-0.017059;0.246154;9.81952;0.003292;0.030825;0.015263;-0.020351;0.215329;9.80425;-0.001198;-0.001332;-0.000666;2014-09-09 18:32:56:300
-0.017059;0.246154;9.81952;0.003292;0.030825;0.015263;-0.020351;0.215329;9.80425;-0.001198;-0.001332;-0.000666;2014-09-09 18:32:56:500
-0.017059;0.246154;9.81952;0.003292;0.030825;0.015263;-0.020351;0.215329;9.80425;-0.001198;-0.001332;-0.000666;2014-09-09 18:32:57:300
-0.017059;0.246154;9.81952;0.003292;0.030825;0.015263;-0.020351;0.215329;9.80425;-0.001198;-0.001332;-0.000666;2014-09-09 18:32:57:500
-0.017059;0.246154;9.81952;0.003292;0.030825;0.015263;-0.020351;0.215329;9.80425;-0.001198;-0.001332;-0.000666;2014-09-09 18:32:58:300
-0.017059;0.246154;9.81952;0.003292;0.030825;0.015263;-0.020351;0.215329;9.80425;-0.001198;-0.001332;-0.000666;2014-09-09 18:32:58:500
-0.017059;0.246154;9.81952;0.003292;0.030825;0.015263;-0.020351;0.215329;9.80425;-0.001198;-0.001332;-0.000666;2014-09-09 18:32:59:300
-0.017059;0.246154;9.81952;0.003292;0.030825;0.015263;-0.020351;0.215329;9.80425;-0.001198;-0.001332;-0.000666;2014-09-09 18:32:59:500
-0.017059;0.246154;9.81952;0.003292;0.030825;0.015263;-0.020351;0.215329;9.80425;-0.001198;-0.001332;-0.000666;2014-09-09 18:33:00:300
-0.017059;0.246154;9.81952;0.003292;0.030825;0.015263;-0.020351;0.215329;9.80425;-0.001198;-0.001332;-0.000666;2014-09-09 18:33:00:500
-0.017059;0.246154;9.81952;0.003292;0.030825;0.015263;-0.020351;0.215329;9.80425;-0.001198;-0.001332;-0.000666;2014-09-09 18:33:01:300
-0.017059;0.246154;9.81952;0.003292;0.030825;0.015263;-0.020351;0.215329;9.80425;-0.001198;-0.001332;-0.000666;2014-09-09 18:33:01:500
-0.017059;0.246154;9.81952;0.003292;0.030825;0.015263;-0.020351;0.215329;9.80425;-0.001198;-0.001332;-0.000666;2014-09-09 18:33:02:300
-0.017059;0.246154;9.81952;0.003292;0.030825;0.015263;-0.020351;0.215329;9.80425;-0.001198;-0.001332;-0.000666;2014-09-09 18:33:02:500
-0.017059;0.246154;9.81952;0.003292;0.030825;0.015263;-0.020351;0.215329;9.80425;-0.001198;-0.001332;-0.000666;2014-09-09 18:33:03:300
-0.017059;0.246154;9.81952;0.003292;0.030825;0.015263;-0.020351;0.215329;9.80425;-0.001198;-0.001332;-0.000666;2014-09-09 18:33:03:500
-0.017059;0.246154;9.81952;0.003292;0.030825;0.015263;-0.020351;0.215329;9.80425;-0.001198;-0.001332;-0.000666;2014-09-09 18:33:04:300
-0.017059;0.246154;9.81952;0.003292;0.030825;0.015263;-0.020351;0.215329;9.80425;-0.001198;-0.001332;-0.000666;2014-09-09 18:33:04:500
-0.017059;0.246154;9.81952;0.003292;0.030825;0.015263;-0.020351;0.215329;9.80425;-0.001198;-0.001332;-0.000666;2014-09-09 18:33:05:300
-0.017059;0.246154;9.81952;0.003292;0.030825;0.015263;-0.020351;0.215329;9.80425;-0.001198;-0.001332;-0.000666;2014-09-09 18:33:05:500
-0.017059;0.246154;9.81952;0.003292;0.030825;0.015263;-0.020351;0.215329;9.80425;-0.001198;-0.001332;-0.000666;2014-09-09 18:33:06:300
-0.017059;0.246154;9.81952;0.003292;0.030825;0.015263;-0.020351;0.215329;9.80425;-0.001198;-0.001332;-0.000666;2014-09-09 18:33:06:500
-0.017059;0.246154;9.81952;0.003292;0.030825;0.015263;-0.020351;0.215329;9.80425;-0.001198;-0.001332;-0.000666;2014-09-09 18:33:07:300
-0.017059;0.246154;9.81952;0.003292;0.030825;0.015263;-0.020351;0.215329;9.80425;-0.001198;-0.001332;-0.000666;2014-09-09 18:33:07:500
-0.017059;0.246154;9.81952;0.003292;0.030825;0.015263;-0.020351;0.215329;9.80425;-0.001198;-0.001332;-0.000666;2014-09-09 18:33:08:300
-0.017059;0.246154;9.81952;0.003292;0.030825;0.015263;-0.020351;0.215329;9.80425;-0.001198;-0.001332;-0.000666;2014-09-09 18:33:08:500
-0.017059;0.246154;9.81952;0.003292;0.030825;0.015263;-0.020351;0.215329;9.80425;-0.001198;-0.001332;-0.000666;2014-09-09 18:33:09:300
-0.017059;0.246154;9.81952;0.003292;0.030825;0.015263;-0.020351;0.215329;9.80425;-0.001198;-0.001332;-0.000666;2014-09-09 18:33:09:500
-0.017059;0.246154;9.81952;0.003292;0.030825;0.015263;-0.020351;0.215329;9.80425;-0.001198;-0.001332;-0.000666;2014-09-09 18:33:10:300
-0.017059;0.246154;9.81952;0.003292;0.030825;0.015263;-0.020351;0.215329;9.80425;-0.001198;-0.001332;-0.000666;2014-09-09 18:33:10:500
-0.017059;0.246154;9.81952;0.003292;0.030825;0.015263;-0.020351;0.215329;9.80425;-0.001198;-0.001332;-0.000666;2014-09-09 18:33:11:300
-0.017059;0.246154;9.81952;0.003292;0.030825;0.015263;-0.020351;0.215329;9.80425;-0.001198;-0.001332;-0.000666;2014-09-09 18:33:11:500
-0.017059;0.246154;9.81952;0.003292;0.030825;0.015263;-0.020351;0.215329;9.80425;-0.001198;-0.001332;-0.000666;2014-09-09 18:33:12:300
-0.017059;0.246154;9.81952;0.003292;0.030825;0.015263;-0.020351;0.215329;9.80425;-0.001198;-0.001332;-0.000666;2014-09-09 18:33:12:500
-0.017059;0.246154;9.81952;0.003292;0.030825;0.015263;-0.020351;0.215329;9.80425;-0.001198;-0.001332;-0.000666;2014-09-09 18:33:13:300
-0.017059;0.246154;9.81952;0.003292;0.030825;0.015263;-0.020351;0.215329;9.80425;-0.001198;-0.001332;-0.000666;2014-09-09 18:33:13:500
-0.017059;0.246154;9.81952;0.003292;0.030825;0.015263;-0.020351;0.215329;9.80425;-0.001198;-0.001332;-0.000666;2014-09-09 18:33:14:300
-0.017059;0.246154;9.81952;0.003292;0.030825;0.015263;-0.020351;0.215329;9.80425;-0.001198;-0.001332;-0.000666;2014-09-09 18:33:14:500
-0.017059;0.246154;9.81952;0.003292;0.030825;0.015263;-0.020351;0.215329;9.80425;-0.001198;-0.001332;-0.000666;2014-09-09 18:33:15:300
-0.017059;0.246154;9.81952;0.003292;0.030825;0.015263;-0.020351;0.215329;9.80425;-0.001198;-0.001332;-0.000666;2014-09-09 18:33:15:500
-0.017059;0.246154;9.81952;0.003292;0.030825;0.015263;-0.020351;0.215329;9.80425;-0.001198;-0.001332;-0.000666;2014-09-09 18:33:16:300
-0.017059;0.246154;9.81952;0.003292;0.030825;0.015263;-0.020351;0.215329;9.80425;-0.001198;-0.001332;-0.000666;2014-09-09 18:33:16:500
-0.017059;0.246154;9.81952;0.003292;0.030825;0.015263;-0.020351;0.215329;9.80425;-0.001198;-0.001332;-0.000666;2014-09-09 18:33:17:300
-0.017059;0.246154;9.81952;0.003292;0.030825;0.015263;-0.020351;0.215329;9.80425;-0.001198;-0.001332;-0.000666;2014-09-09 18:33:17:500
-0.017059;0.246154;9.81952;0.003292;0.030825;0.015263;-0.020351;0.215329;9.80425;-0.001198;-0.001332;-0.000666;2014-09-09 18:33:18:300
-0.017059;0.246154;9.81952;0.003292;0.030825;0.015263;-0.020351;0.215329;9.80425;-0.001198;-0.001332;-0.000666;2014-09-09 18:33:18:500
-0.017059;0.246154;9.81952;0.003292;0.030825;0.015263;-0.020351;0.215329;9.80425;-0.001198;-0.001332;-0.000666;2014-09-09 18:33:19:300
-0.017059;0.246154;9.81952;0.003292;0.030825;0.015263;-0.020351;0.215329;9.80425;-0.001198;-0.001332;-0.000666;2014-09-09 18:33:19:500
-0.017059;0.246154;9.81952;0.003292;0.030825;0.015263;-0.020351;0.215329;9.80425;-0.001198;-0.001332;-0.000666;2014-09-09 18:33:20:300
-0.017059;0.246154;9.81952;0.003292;0.030825;0.015263;-0.020351;0.215329;9.80425;-0.001198;-0.001332;-0.000666;2014-09-09 18:33:20:500
-0.017059;0.246154;9.81952;0.003292;0.030825;0.015263;-0.020351;0.215329;9.80425;-0.001198;-0.001332;-0.000666;2014-09-09 18:33:21:300
-0.017059;0.246154;9.81952;0.003292;0.030825;0.015263;-0.020351;0.215329;9.80425;-0.001198;-0.001332;-0.000666;2014-09-09 18:33:21:500
-0.017059;0.246154;9.81952;0.003292;0.030825;0.015263;-0.020351;0.215329;9.80425;-0.001198;-0.001332;-0.000666;2014-09-09 18:33:22:300
-0.017059;0.246154;9.81952;0.003292;0.030825;0.015263;-0.020351;0.215329;9.80425;-0.001198;-0.001332;-0.000666;2014-09-09 18:33:22:500
-0.017059;0.246154;9.81952;0.003292;0.030825;0.015263;-0.020351;0.215329;9.80425;-0.001198;-0.001332;-0.000666;2014-09-09 18:33:23:300
-0.017059;0.246154;9.81952;0.003292;0.030825;0.015263;-0.020351;0.215329;9.80425;-0.001198;-0.001332;-0.000666;2014-09-09 18:33:23:500
-0.017059;0.246154;9.81952;0.003292;0.030825;0.015263;-0.020351;0.215329;9.80425;-0.001198;-0.001332;-0.000666;2014-09-09 18:33:24:300
-0.017059;0.246154;9.81952;0.003292;0.030825;0.015263;-0.020351;0.215329;9.80425;-0.001198;-0.001332;-0.000666;2014-09-09 18:33:24:500
-0.017059;0.246154;9.81952;0.003292;0.030825;0.015263;-0.020351;0.215329;9.80425;-0.001198;-0.001332;-0.000666;2014-09-09 18:33:25:300
-0.017059;0.246154;9.81952;0.003292;0.030825;0.015263;-0.020351;0.215329;9.80425;-0.001198;-0.001332;-0.000666;2014-09-09 18:33:25:500
-0.017059;0.246154;9.81952;0.003292;0.030825;0.015263;-0.020351;0.215329;9.80425;-0.001198;-0.001332;-0.000666;2014-09-09 18:33:26:300
-0.017059;0.246154;9.81952;0.003292;0.030825;0.015263;-0.020351;0.215329;9.80425;-0.001198;-0.001332;-0.000666;2014-09-09 18:33:26:500
-0.017059;0.246154;9.81952;0.003292;0.030825;0.015263;-0.020351;0.215329;9.80425;-0.001198;-0.001332;-0.000666;2014-09-09 18:33:27:300
-0.017059;0.246154;9.81952;0.003292;0.030825;0.015263;-0.020351;0.215329;9.80425;-0.001198;-0.001332;-0.000666;2014-09-09 18:33:27:500
-0.017059;0.246154;9.81952;0.003292;0.030825;0.015263;-0.020351;0.215329;9.80425;-0.001198;-0.001332;-0.000666;2014-09-09 18:33:28:300
-0.017059;0.246154;9.81952;0.003292;0.030825;0.015263;-0.020351;0.215329;9.80425;-0.001198;-0.001332;-0.000666;2014-09-09 18:33:28:500
-0.017059;0.246154;9.81952;0.003292;0.030825;0.015263;-0.020351;0.215329;9.80425;-0.001198;-0.001332;-0.000666;2014-09-09 18:33:29:300
-0.017059;0.246154;9.81952;0.003292;0.030825;0.015263;-0.020351;0.215329;9.80425;-0.001198;-0.001332;-0.000666;2014-09-09 18:33:29:500
-0.017059;0.246154;9.81952;0.003292;0.030825;0.015263;-0.020351;0.215329;9.80425;-0.001198;-0.001332;-0.000666;2014-09-09 18:33:30:300
-0.017059;0.246154;9.81952;0.003292;0.030825;0.015263;-0.020351;0.215329;9.80425;-0.001198;-0.001332;-0.000666;2014-09-09 18:33:30:500
-0.017059;0.246154;9.81952;0.003292;0.030825;0.015263;-0.020351;0.215329;9.80425;-0.001198;-0.001332;-0.000666;2014-09-09 18:33:31:300
-0.017059;0.246154;9.81952;0.003292;0.030825;0.015263;-0.020351;0.215329;9.80425;-0.001198;-0.001332;-0.000666;2014-09-09 18:33:31:500
-0.017059;0.246154;9.81952;0.003292;0.030825;0.015263;-0.020351;0.215329;9.80425;-0.001198;-0.001332;-0.000666;2014-09-09 18:33:32:300
-0.017059;0.246154;9.81952;0.003292;0.030825;0.015263;-0.020351;0.215329;9.80425;-0.001198;-0.001332;-0.000666;2014-09-09 18:33:32:500
-0.017059;0.246154;9.81952;0.003292;0.030825;0.015263;-0.020351;0.215329;9.80425;-0.001198;-0.001332;-0.000666;2014-09-09 18:33:33:300
-0.017059;0.246154;9.81952;0.003292;0.030825;0.015263;-0.020351;0.215329;9.80425;-0.001198;-0.001332;-0.000666;2014-09-09 18:33:33:500
-0.017059;0.246154;9.81952;0.003292;0.030825;0.015263;-0.020351;0.215329;9.80425;-0.001198;-0.001332;-0.000666;2014-09-09 18:33:34:300
-0.017059;0.246154;9.81952;0.003292;0.030825;0.015263;-0.020351;0.215329;9.80425;-0.001198;-0.001332;-0.000666;2014-09-09 18:33:34:500
-0.017059;0.246154;9.81952;0.003292;0.030825;0.015263;-0.020351;0.215329;9.80425;-0.001198;-0.001332;-0.000666;2014-09-09 18:33:35:300
-0.017059;0.246154;9.81952;0.003292;0.030825;0.015263;-0.020351;0.215329;9.80425;-0.001198;-0.001332;-0.000666;2014-09-09 18:33:35:500
-0.017059;0.246154;9.81952;0.003292;0.030825;0.015263;-0.020351;0.215329;9.80425;-0.001198;-0.001332;-0.000666;2014-09-09 18:33:36:300
-0.017059;0.246154;9.81952;0.003292;0.030825;0.015263;-0.020351;0.215329;9.80425;-0.001198;-0.001332;-0.000666;2014-09-09 18:33:36:500
-0.017059;0.246154;9.81952;0.003292;0.030825;0.015263;-0.020351;0.215329;9.80425;-0.001198;-0.001332;-0.000666;2014-09-09 18:33:37:300
-0.017059;0.246154;9.81952;0.003292;0.030825;0.015263;-0.020351;0.215329;9.80425;-0.001198;-0.001332;-0.000666;2014-09-09 18:33:37:500
-0.017059;0.246154;9.81952;0.003292;0.030825;0.015263;-0.020351;0.215329;9.80425;-0.001198;-0.001332;-0.000666;2014-09-09 18:33:38:300
-0.017059;0.246154;9.81952;0.003292;0.030825;0.015263;-0.020351;0.215329;9.80425;-0.001198;-0.001332;-0.000666;2014-09-09 18:33:38:500
-0.017059;0.246154;9.81952;0.003292;0.030825;0.015263;-0.020351;0.215329;9.80425;-0.001198;-0.001332;-0.000666;2014-09-09 18:33:39:300
-0.017059;0.246154;9.81952;0.003292;0.030825;0.015263;-0.020351;0.215329;9.80425;-0.001198;-0.001332;-0.000666;2014-09-09 18:33:39:500
-0.017059;0.246154;9.81952;0.003292;0.030825;0.015263;-0.020351;0.215329;9.80425;-0.001198;-0.001332;-0.000666;2014-09-09 18:33:40:300
-0.017059;0.246154;9.81952;0.003292;0.030825;0.015263;-0.020351;0.215329;9.80425;-0.001198;-0.001332;-0.000666;2014-09-09 18:33:40:500
-0.017059;0.246154;9.81952;0.003292;0.030825;0.015263;-0.020351;0.215329;9.80425;-0.001198;-0.001332;-0.000666;2014-09-09 18:33:41:300
-0.017059;0.246154;9.81952;0.003292;0.030825;0.015263;-0.020351;0.215329;9.80425;-0.001198;-0.001332;-0.000666;2014-09-09 18:33:41:500
-0.017059;0.246154;9.81952;0.003292;0.030825;0.015263;-0.020351;0.215329;9.80425;-0.001198;-0.001332;-0.000666;2014-09-09 18:33:42:300
-0.017059;0.246154;9.81952;0.003292;0.030825;0.015263;-0.020351;0.215329;9.80425;-0.001198;-0.001332;-0.000666;2014-09-09 18:33:42:500
-0.017059;0.246154;9.81952;0.003292;0.030825;0.015263;-0.020351;0.215329;9.80425;-0.001198;-0.001332;-0.000666;2014-09-09 18:33:43:300
-0.017059;0.246154;9.81952;0.003292;0.030825;0.015263;-0.020351;0.215329;9.80425;-0.001198;-0.001332;-0.000666;2014-09-09 18:33:43:500
-0.017059;0.246154;9.81952;0.003292;0.030825;0.015263;-0.020351;0.215329;9.80425;-0.001198;-0.001332;-0.000666;2014-09-09 18:33:44:300
-0.017059;0.246154;9.81952;0.003292;0.030825;0.015263;-0.020351;0.215329;9.80425;-0.001198;-0.001332;-0.000666;2014-09-09 18:33:44:500
-0.017059;0.246154;9.81952;0.003292;0.030825;0.015263;-0.020351;0.215329;9.80425;-0.001198;-0.001332;-0.000666;2014-09-09 18:33:45:300
-0.017059;0.246154;9.81952;0.003292;0.030825;0.015263;-0.020351;0.215329;9.80425;-0.001198;-0.001332;-0.000666;2014-09-09 18:33:45:500
-0.017059;0.246154;9.81952;0.003292;0.030825;0.015263;-0.020351;0.215329;9.80425;-0.001198;-0.001332;-0.000666;2014-09-09 18:33:46:300
-0.017059;0.246154;9.81952;0.003292;0.030825;0.015263;-0.020351;0.215329;9.80425;-0.001198;-0.001332;-0.000666;2014-09-09 18:33:46:500
-0.017059;0.246154;9.81952;0.003292;0.030825;0.015263;-0.020351;0.215329;9.80425;-0.001198;-0.001332;-0.000666;2014-09-09 18:33:47:300
-0.017059;0.246154;9.81952;0.003292;0.030825;0.015263;-0.020351;0.215329;9.80425;-0.001198;-0.001332;-0.000666;2014-09-09 18:33:47:500
-0.017059;0.246154;9.81952;0.003292;0.030825;0.015263;-0.020351;0.215329;9.80425;-0.001198;-0.001332;-0.000666;2014-09-09 18:33:48:300
-0.017059;0.246154;9.81952;0.003292;0.030825;0.015263;-0.020351;0.215329;9.80425;-0.001198;-0.001332;-0.000666;2014-09-09 18:33:48:500
-0.017059;0.246154;9.81952;0.003292;0.030825;0.015263;-0.020351;0.215329;9.80425;-0.001198;-0.001332;-0.000666;2014-09-09 18:33:49:300
-0.017059;0.246154;9.81952;0.003292;0.030825;0.015263;-0.020351;0.215329;9.80425;-0.001198;-0.001332;-0.000666;2014-09-09 18:33:49:500
-0.017059;0.246154;9.81952;0.003292;0.030825;0.015263;-0.020351;0.215329;9.80425;-0.001198;-0.001332;-0.000666;2014-09-09 18:33:50:300
-0.017059;0.246154;9.81952;0.003292;0.030825;0.015263;-0.020351;0.215329;9.80425;-0.001198;-0.001332;-0.000666;2014-09-09 18:33:50:500
-0.017059;0.246154;9.81952;0.003292;0.030825;0.015263;-0.020351;0.215329;9.80425;-0.001198;-0.001332;-0.000666;2014-09-09 18:33:51:300
-0.017059;0.246154;9.81952;0.003292;0.030825;0.015263;-0.020351;0.215329;9.80425;-0.001198;-0.001332;-0.000666;2014-09-09 18:33:51:500
-0.017059;0.246154;9.81952;0.003292;0.030825;0.015263;-0.020351;0.215329;9.80425;-0.001198;-0.001332;-0.000666;2014-09-09 18:33:52:300
-0.017059;0.246154;9.81952;0.003292;0.030825;0.015263;-0.020351;0.215329;9.80425;-0.001198;-0.001332;-0.000666;2014-09-09 18:33:52:500
-0.017059;0.246154;9.81952;0.003292;0.030825;0.015263;-0.020351;0.215329;9.80425;-0.001198;-0.001332;-0.000666;2014-09-09 18:33:53:300
-0.017059;0.246154;9.81952;0.003292;0.030825;0.015263;-0.020351;0.215329;9.80425;-0.001198;-0.001332;-0.000666;2014-09-09 18:33:53:500
-0.017059;0.246154;9.81952;0.003292;0.030825;0.015263;-0.020351;0.215329;9.80425;-0.001198;-0.001332;-0.000666;2014-09-09 18:33:54:300
-0.017059;0.246154;9.81952;0.003292;0.030825;0.015263;-0.020351;0.215329;9.80425;-0.001198;-0.001332;-0.000666;2014-09-09 18:33:54:500
-0.017059;0.246154;9.81952;0.003292;0.030825;0.015263;-0.020351;0.215329;9.80425;-0.001198;-0.001332;-0.000666;2014-09-09 18:33:55:300
-0.017059;0.246154;9.81952;0.003292;0.030825;0.015263;-0.020351;0.215329;9.80425;-0.001198;-0.001332;-0.000666;2014-09-09 18:33:55:500
-0.017059;0.246154;9.81952;0.003292;0.030825;0.015263;-0.020351;0.215329;9.80425;-0.001198;-0.001332;-0.000666;2014-09-09 18:33:56:300
-0.017059;0.246154;9.81952;0.003292;0.030825;0.015263;-0.020351;0.215329;9.80425;-0.001198;-0.001332;-0.000666;2014-09-09 18:33:56:500
-0.017059;0.246154;9.81952;0.003292;0.030825;0.015263;-0.020351;0.215329;9.80425;-0.001198;-0.001332;-0.000666;2014-09-09 18:33:57:300
-0.017059;0.246154;9.81952;0.003292;0.030825;0.015263;-0.020351;0.215329;9.80425;-0.001198;-0.001332;-0.000666;2014-09-09 18:33:57:500
-0.017059;0.246154;9.81952;0.003292;0.030825;0.015263;-0.020351;0.215329;9.80425;-0.001198;-0.001332;-0.000666;2014-09-09 18:33:58:300
-0.017059;0.246154;9.81952;0.003292;0.030825;0.015263;-0.020351;0.215329;9.80425;-0.001198;-0.001332;-0.000666;2014-09-09 18:33:58:500
-0.017059;0.246154;9.81952;0.003292;0.030825;0.015263;-0.020351;0.215329;9.80425;-0.001198;-0.001332;-0.000666;2014-09-09 18:33:59:300
-0.017059;0.246154;9.81952;0.003292;0.030825;0.015263;-0.020351;0.215329;9.80425;-0.001198;-0.001332;-0.000666;2014-09-09 18:33:59:500
-0.017059;0.246154;9.81952;0.003292;0.030825;0.015263;-0.020351;0.215329;9.80425;-0.001198;-0.001332;-0.000666;2014-09-09 18:34:00:300
-0.017059;0.246154;9.81952;0.003292;0.030825;0.015263;-0.020351;0.215329;9.80425;-0.001198;-0.001332;-0.000666;2014-09-09 18:34:00:500
-0.017059;0.246154;9.81952;0.003292;0.030825;0.015263;-0.020351;0.215329;9.80425;-0.001198;-0.001332;-0.000666;2014-09-09 18:34:01:300
-0.017059;0.246154;9.81952;0.003292;0.030825;0.015263;-0.020351;0.215329;9.80425;-0.001198;-0.001332;-0.000666;2014-09-09 18:34:01:500
-0.017059;0.246154;9.81952;0.003292;0.030825;0.015263;-0.020351;0.215329;9.80425;-0.001198;-0.001332;-0.000666;2014-09-09 18:34:02:300
-0.017059;0.246154;9.81952;0.003292;0.030825;0.015263;-0.020351;0.215329;9.80425;-0.001198;-0.001332;-0.000666;2014-09-09 18:34:02:500
-0.017059;0.246154;9.81952;0.003292;0.030825;0.015263;-0.020351;0.215329;9.80425;-0.001198;-0.001332;-0.000666;2014-09-09 18:34:03:300
-0.017059;0.246154;9.81952;0.003292;0.030825;0.015263;-0.020351;0.215329;9.80425;-0.001198;-0.001332;-0.000666;2014-09-09 18:34:03:500
-0.017059;0.246154;9.81952;0.003292;0.030825;0.015263;-0.020351;0.215329;9.80425;-0.001198;-0.001332;-0.000666;2014-09-09 18:34:04:300
-0.017059;0.246154;9.81952;0.003292;0.030825;0.015263;-0.020351;0.215329;9.80425;-0.001198;-0.001332;-0.000666;2014-09-09 18:34:04:500
-0.017059;0.246154;9.81952;0.003292;0.030825;0.015263;-0.020351;0.215329;9.80425;-0.001198;-0.001332;-0.000666;2014-09-09 18:34:05:300
-0.017059;0.246154;9.81952;0.003292;0.030825;0.015263;-0.020351;0.215329;9.80425;-0.001198;-0.001332;-0.000666;2014-09-09 18:34:05:500
-0.017059;0.246154;9.81952;0.003292;0.030825;0.015263;-0.020351;0.215329;9.80425;-0.001198;-0.001332;-0.000666;2014-09-09 18:34:06:300
-0.017059;0.246154;9.81952;0.003292;0.030825;0.015263;-0.020351;0.215329;9.80425;-0.001198;-0.001332;-0.000666;2014-09-09 18:34:06:500
-0.017059;0.246154;9.81952;0.003292;0.030825;0.015263;-0.020351;0.215329;9.80425;-0.001198;-0.001332;-0.000666;2014-09-09 18:34:07:300
-0.017059;0.246154;9.81952;0.003292;0.030825;0.015263;-0.020351;0.215329;9.80425;-0.001198;-0.001332;-0.000666;2014-09-09 18:34:07:500
-0.017059;0.246154;9.81952;0.003292;0.030825;0.015263;-0.020351;0.215329;9.80425;-0.001198;-0.001332;-0.000666;2014-09-09 18:34:08:300
-0.017059;0.246154;9.81952;0.003292;0.030825;0.015263;-0.020351;0.215329;9.80425;-0.001198;-0.001332;-0.000666;2014-09-09 18:34:08:500
-0.017059;0.246154;9.81952;0.003292;0.030825;0.015263;-0.020351;0.215329;9.80425;-0.001198;-0.001332;-0.000666;2014-09-09 18:34:09:300
-0.017059;0.246154;9.81952;0.003292;0.030825;0.015263;-0.020351;0.215329;9.80425;-0.001198;-0.001332;-0.000666;2014-09-09 18:34:09:500
-0.017059;0.246154;9.81952;0.003292;0.030825;0.015263;-0.020351;0.215329;9.80425;-0.001198;-0.001332;-0.000666;2014-09-09 18:34:10:300
-0.017059;0.246154;9.81952;0.003292;0.030825;0.015263;-0.020351;0.215329;9.80425;-0.001198;-0.001332;-0.000666;2014-09-09 18:34:10:500
-0.017059;0.246154;9.81952;0.003292;0.030825;0.015263;-0.020351;0.215329;9.80425;-0.001198;-0.001332;-0.000666;2014-09-09 18:34:11:300
-0.017059;0.246154;9.81952;0.003292;0.030825;0.015263;-0.020351;0.215329;9.80425;-0.001198;-0.001332;-0.000666;2014-09-09 18:34:11:500
-0.017059;0.246154;9.81952;0.003292;0.030825;0.015263;-0.020351;0.215329;9.80425;-0.001198;-0.001332;-0.000666;2014-09-09 18:34:12:300
-0.017059;0.246154;9.81952;0.003292;0.030825;0.015263;-0.020351;0.215329;9.80425;-0.001198;-0.001332;-0.000666;2014-09-09 18:34:12:500
-0.017059;0.246154;9.81952;0.003292;0.030825;0.015263;-0.020351;0.215329;9.80425;-0.001198;-0.001332;-0.000666;2014-09-09 18:34:13:300
-0.017059;0.246154;9.81952;0.003292;0.030825;0.015263;-0.020351;0.215329;9.80425;-0.001198;-0.001332;-0.000666;2014-09-09 18:34:13:500
-0.017059;0.246154;9.81952;0.003292;0.030825;0.015263;-0.020351;0.215329;9.80425;-0.001198;-0.001332;-0.000666;2014-09-09 18:34:14:300
-0.017059;0.246154;9.81952;0.003292;0.030825;0.015263;-0.020351;0.215329;9.80425;-0.001198;-0.001332;-0.000666;2014-09-09 18:34:14:500
-0.017059;0.246154;9.81952;0.003292;0.030825;0.015263;-0.020351;0.215329;9.80425;-0.001198;-0.001332;-0.000666;2014-09-09 18:34:15:300
-0.017059;0.246154;9.81952;0.003292;0.030825;0.015263;-0.020351;0.215329;9.80425;-0.001198;-0.001332;-0.000666;2014-09-09 18:34:15:500
-0.017059;0.246154;9.81952;0.003292;0.030825;0.015263;-0.020351;0.215329;9.80425;-0.001198;-0.001332;-0.000666;2014-09-09 18:34:16:300
-0.017059;0.246154;9.81952;0.003292;0.030825;0.015263;-0.020351;0.215329;9.80425;-0.001198;-0.001332;-0.000666;2014-09-09 18:34:16:500
-0.017059;0.246154;9.81952;0.003292;0.030825;0.015263;-0.020351;0.215329;9.80425;-0.001198;-0.001332;-0.000666;2014-09-09 18:34:17:300
-0.017059;0.246154;9.81952;0.003292;0.030825;0.015263;-0.020351;0.215329;9.80425;-0.001198;-0.001332;-0.000666;2014-09-09 18:34:17:500
-0.017059;0.246154;9.81952;0.003292;0.030825;0.015263;-0.020351;0.215329;9.80425;-0.001198;-0.001332;-0.000666;2014-09-09 18:34:18:300
-0.017059;0.246154;9.81952;0.003292;0.030825;0.015263;-0.020351;0.215329;9.80425;-0.001198;-0.001332;-0.000666;2014-09-09 18:34:18:500
-0.017059;0.246154;9.81952;0.003292;0.030825;0.015263;-0.020351;0.215329;9.80425;-0.001198;-0.001332;-0.000666;2014-09-09 18:34:19:300
-0.017059;0.246154;9.81952;0.003292;0.030825;0.015263;-0.020351;0.215329;9.80425;-0.001198;-0.001332;-0.000666;2014-09-09 18:34:19:500
-0.017059;0.246154;9.81952;0.003292;0.030825;0.015263;-0.020351;0.215329;9.80425;-0.001198;-0.001332;-0.000666;2014-09-09 18:34:20:300
-0.017059;0.246154;9.81952;0.003292;0.030825;0.015263;-0.020351;0.215329;9.80425;-0.001198;-0.001332;-0.000666;2014-09-09 18:34:20:500
-0.017059;0.246154;9.81952;0.003292;0.030825;0.015263;-0.020351;0.215329;9.80425;-0.001198;-0.001332;-0.000666;2014-09-09 18:34:21:300
-0.017059;0.246154;9.81952;0.003292;0.030825;0.015263;-0.020351;0.215329;9.80425;-0.001198;-0.001332;-0.000666;2014-09-09 18:34:21:500
-0.017059;0.246154;9.81952;0.003292;0.030825;0.015263;-0.020351;0.215329;9.80425;-0.001198;-0.001332;-0.000666;2014-09-09 18:34:22:300
-0.017059;0.246154;9.81952;0.003292;0.030825;0.015263;-0.020351;0.215329;9.80425;-0.001198;-0.001332;-0.000666;2014-09-09 18:34:22:500
-0.017059;0.246154;9.81952;0.003292;0.030825;0.015263;-0.020351;0.215329;9.80425;-0.001198;-0.001332;-0.000666;2014-09-09 18:34:23:300
-0.017059;0.246154;9.81952;0.003292;0.030825;0.015263;-0.020351;0.215329;9.80425;-0.001198;-0.001332;-0.000666;2014-09-09 18:34:23:500
-0.017059;0.246154;9.81952;0.003292;0.030825;0.015263;-0.020351;0.215329;9.80425;-0.001198;-0.001332;-0.000666;2014-09-09 18:34:24:300
-0.017059;0.246154;9.81952;0.003292;0.030825;0.015263;-0.020351;0.215329;9.80425;-0.001198;-0.001332;-0.000666;2014-09-09 18:34:24:500
-0.017059;0.246154;9.81952;0.003292;0.030825;0.015263;-0.020351;0.215329;9.80425;-0.001198;-0.001332;-0.000666;2014-09-09 18:34:25:300
-0.017059;0.246154;9.81952;0.003292;0.030825;0.015263;-0.020351;0.215329;9.80425;-0.001198;-0.001332;-0.000666;2014-09-09 18:34:25:500
-0.017059;0.246154;9.81952;0.003292;0.030825;0.015263;-0.020351;0.215329;9.80425;-0.001198;-0.001332;-0.000666;2014-09-09 18:34:26:300
-0.017059;0.246154;9.81952;0.003292;0.030825;0.015263;-0.020351;0.215329;9.80425;-0.001198;-0.001332;-0.000666;2014-09-09 18:34:26:500
-0.017059;0.246154;9.81952;0.003292;0.030825;0.015263;-0.020351;0.215329;9.80425;-0.001198;-0.001332;-0.000666;2014-09-09 18:34:27:300
-0.017059;0.246154;9.81952;0.003292;0.030825;0.015263;-0.020351;0.215329;9.80425;-0.001198;-0.001332;-0.000666;2014-09-09 18:34:27:500
-0.017059;0.246154;9.81952;0.003292;0.030825;0.015263;-0.020351;0.215329;9.80425;-0.001198;-0.001332;-0.000666;2014-09-09 18:34:28:300
-0.017059;0.246154;9.81952;0.003292;0.030825;0.015263;-0.020351;0.215329;9.80425;-0.001198;-0.001332;-0.000666;2014-09-09 18:34:28:500
-0.017059;0.246154;9.81952;0.003292;0.030825;0.015263;-0.020351;0.215329;9.80425;-0.001198;-0.001332;-0.000666;2014-09-09 18:34:29:300
-0.017059;0.246154;9.81952;0.003292;0.030825;0.015263;-0.020351;0.215329;9.80425;-0.001198;-0.001332;-0.000666;2014-09-09 18:34:29:500
-0.017059;0.246154;9.81952;0.003292;0.030825;0.015263;-0.020351;0.215329;9.80425;-0.001198;-0.001332;-0.000666;2014-09-09 18:34:30:300
-0.017059;0.246154;9.81952;0.003292;0.030825;0.015263;-0.020351;0.215329;9.80425;-0.001198;-0.001332;-0.000666;2014-09-09 18:34:30:500
-0.017059;0.246154;9.81952;0.003292;0.030825;0.015263;-0.020351;0.215329;9.80425;-0.001198;-0.001332;-0.000666;2014-09-09 18:34:31:300
-0.017059;0.246154;9.81952;0.003292;0.030825;0.015263;-0.020351;0.215329;9.80425;-0.001198;-0.001332;-0.000666;2014-09-09 18:34:31:500
-0.017059;0.246154;9.81952;0.003292;0.030825;0.015263;-0.020351;0.215329;9.80425;-0.001198;-0.001332;-0.000666;2014-09-09 18:34:32:300
-0.017059;0.246154;9.81952;0.003292;0.030825;0.015263;-0.020351;0.215329;9.80425;-0.001198;-0.001332;-0.000666;2014-09-09 18:34:32:500
-0.017059;0.246154;9.81952;0.003292;0.030825;0.015263;-0.020351;0.215329;9.80425;-0.001198;-0.001332;-0.000666;2014-09-09 18:34:33:300
-0.017059;0.246154;9.81952;0.003292;0.030825;0.015263;-0.020351;0.215329;9.80425;-0.001198;-0.001332;-0.000666;2014-09-09 18:34:33:500
-0.017059;0.246154;9.81952;0.003292;0.030825;0.015263;-0.020351;0.215329;9.80425;-0.001198;-0.001332;-0.000666;2014-09-09 18:34:34:300
-0.017059;0.246154;9.81952;0.003292;0.030825;0.015263;-0.020351;0.215329;9.80425;-0.001198;-0.001332;-0.000666;2014-09-09 18:34:34:500
-0.017059;0.246154;9.81952;0.003292;0.030825;0.015263;-0.020351;0.215329;9.80425;-0.001198;-0.001332;-0.000666;2014-09-09 18:34:35:300
-0.017059;0.246154;9.81952;0.003292;0.030825;0.015263;-0.020351;0.215329;9.80425;-0.001198;-0.001332;-0.000666;2014-09-09 18:34:35:500
-0.017059;0.246154;9.81952;0.003292;0.030825;0.015263;-0.020351;0.215329;9.80425;-0.001198;-0.001332;-0.000666;2014-09-09 18:34:36:300
-0.017059;0.246154;9.81952;0.003292;0.030825;0.015263;-0.020351;0.215329;9.80425;-0.001198;-0.001332;-0.000666;2014-09-09 18:34:36:500
-0.017059;0.246154;9.81952;0.003292;0.030825;0.015263;-0.020351;0.215329;9.80425;-0.001198;-0.001332;-0.000666;2014-09-09 18:34:37:300
-0.017059;0.246154;9.81952;0.003292;0.030825;0.015263;-0.020351;0.215329;9.80425;-0.001198;-0.001332;-0.000666;2014-09-09 18:34:37:500
-0.017059;0.246154;9.81952;0.003292;0.030825;0.015263;-0.020351;0.215329;9.80425;-0.001198;-0.001332;-0.000666;2014-09-09 18:34:38:300
-0.017059;0.246154;9.81952;0.003292;0.030825;0.015263;-0.020351;0.215329;9.80425;-0.001198;-0.001332;-0.000666;2014-09-09 18:34:38:500
-0.017059;0.246154;9.81952;0.003292;0.030825;0.015263;-0.020351;0.215329;9.80425;-0.001198;-0.001332;-0.000666;2014-09-09 18:34:39:300
-0.017059;0.246154;9.81952;0.003292;0.030825;0.015263;-0.020351;0.215329;9.80425;-0.001198;-0.001332;-0.000666;2014-09-09 18:34:39:500
-0.017059;0.246154;9.81952;0.003292;0.030825;0.015263;-0.020351;0.215329;9.80425;-0.001198;-0.001332;-0.000666;2014-09-09 18:34:40:300
-0.017059;0.246154;9.81952;0.003292;0.030825;0.015263;-0.020351;0.215329;9.80425;-0.001198;-0.001332;-0.000666;2014-09-09 18:34:40:500
-0.017059;0.246154;9.81952;0.003292;0.030825;0.015263;-0.020351;0.215329;9.80425;-0.001198;-0.001332;-0.000666;2014-09-09 18:34:41:300
-0.017059;0.246154;9.81952;0.003292;0.030825;0.015263;-0.020351;0.215329;9.80425;-0.001198;-0.001332;-0.000666;2014-09-09 18:34:41:500
-0.017059;0.246154;9.81952;0.003292;0.030825;0.015263;-0.020351;0.215329;9.80425;-0.001198;-0.001332;-0.000666;2014-09-09 18:34:42:300
-0.017059;0.246154;9.81952;0.003292;0.030825;0.015263;-0.020351;0.215329;9.80425;-0.001198;-0.001332;-0.000666;2014-09-09 18:34:42:500
-0.017059;0.246154;9.81952;0.003292;0.030825;0.015263;-0.020351;0.215329;9.80425;-0.001198;-0.001332;-0.000666;2014-09-09 18:34:43:300
-0.017059;0.246154;9.81952;0.003292;0.030825;0.015263;-0.020351;0.215329;9.80425;-0.001198;-0.001332;-0.000666;2014-09-09 18:34:43:500
-0.017059;0.246154;9.81952;0.003292;0.030825;0.015263;-0.020351;0.215329;9.80425;-0.001198;-0.001332;-0.000666;2014-09-09 18:34:44:300
-0.017059;0.246154;9.81952;0.003292;0.030825;0.015263;-0.020351;0.215329;9.80425;-0.001198;-0.001332;-0.000666;2014-09-09 18:34:44:500
-0.017059;0.246154;9.81952;0.003292;0.030825;0.015263;-0.020351;0.215329;9.80425;-0.001198;-0.001332;-0.000666;2014-09-09 18:34:45:300
-0.017059;0.246154;9.81952;0.003292;0.030825;0.015263;-0.020351;0.215329;9.80425;-0.001198;-0.001332;-0.000666;2014-09-09 18:34:45:500
-0.017059;0.246154;9.81952;0.003292;0.030825;0.015263;-0.020351;0.215329;9.80425;-0.001198;-0.001332;-0.000666;2014-09-09 18:34:46:300
-0.017059;0.246154;9.81952;0.003292;0.030825;0.015263;-0.020351;0.215329;9.80425;-0.001198;-0.001332;-0.000666;2014-09-09 18:34:46:500
-0.017059;0.246154;9.81952;0.003292;0.030825;0.015263;-0.020351;0.215329;9.80425;-0.001198;-0.001332;-0.000666;2014-09-09 18:34:47:300
-0.017059;0.246154;9.81952;0.003292;0.030825;0.015263;-0.020351;0.215329;9.80425;-0.001198;-0.001332;-0.000666;2014-09-09 18:34:47:500
-0.017059;0.246154;9.81952;0.003292;0.030825;0.015263;-0.020351;0.215329;9.80425;-0.001198;-0.001332;-0.000666;2014-09-09 18:34:48:300
-0.017059;0.246154;9.81952;0.003292;0.030825;0.015263;-0.020351;0.215329;9.80425;-0.001198;-0.001332;-0.000666;2014-09-09 18:34:48:500
-0.017059;0.246154;9.81952;0.003292;0.030825;0.015263;-0.020351;0.215329;9.80425;-0.001198;-0.001332;-0.000666;2014-09-09 18:34:49:300
-0.017059;0.246154;9.81952;0.003292;0.030825;0.015263;-0.020351;0.215329;9.80425;-0.001198;-0.001332;-0.000666;2014-09-09 18:34:49:500
-0.017059;0.246154;9.81952;0.003292;0.030825;0.015263;-0.020351;0.215329;9.80425;-0.001198;-0.001332;-0.000666;2014-09-09 18:34:50:300
-0.017059;0.246154;9.81952;0.003292;0.030825;0.015263;-0.020351;0.215329;9.80425;-0.001198;-0.001332;-0.000666;2014-09-09 18:34:50:500
-0.017059;0.246154;9.81952;0.003292;0.030825;0.015263;-0.020351;0.215329;9.80425;-0.001198;-0.001332;-0.000666;2014-09-09 18:34:51:300
-0.017059;0.246154;9.81952;0.003292;0.030825;0.015263;-0.020351;0.215329;9.80425;-0.001198;-0.001332;-0.000666;2014-09-09 18:34:51:500
