ACCELERATION X,ACCELERATION Y,ACCELERATION Z,LINEAR_ACCELERATION X,LINEAR_ACCELERATION Y,LINEAR_ACCELERATION Z,GRAVITY X,GRAVITY Y,GRAVITY Z,GYROSCOPE X,GYROSCOPE Y,GYROSCOPE Z,Year,Month,Day,Hour,Minute,Second,Millisecond,Date
-0.132729,3.202993,9.571120,-0.140809,3.031209,-0.233884,0.008080,0.171784,9.805004,0.034286,-0.017821,-0.018231,2014,10,8,14,36,31,0,2014-10-08 14:36:31:604
-0.077662,3.286790,9.389161,-0.140809,3.031209,-0.233884,0.008080,0.171784,9.805004,0.034286,-0.017821,-0.018231,2014,10,8,14,36,31,0,2014-10-08 14:36:31:606
-0.077662,3.286790,9.389161,-0.085742,3.115006,-0.415843,0.008080,0.171784,9.805004,0.034286,-0.017821,-0.018231,2014,10,8,14,36,31,0,2014-10-08 14:36:31:619
-0.085742,3.115006,-0.415843,-0.085742,3.115006,-0.415843,0.008080,0.171784,9.805004,0.034286,-0.017821,-0.018231,2014,10,8,14,36,31,0,2014-10-08 14:36:31:622
-0.085742,3.115006,-0.415843,-0.085742,3.115006,-0.415843,0.008080,0.171784,9.805004,0.046003,-0.038061,-0.000121,2014,10,8,14,36,31,0,2014-10-08 14:36:31:799
3.252673,5.209334,2.977489,-0.085742,3.115006,-0.415843,0.008080,0.171784,9.805004,0.046003,-0.038061,-0.000121,2014,10,8,14,36,31,0,2014-10-08 14:36:31:801
3.252673,5.209334,2.977489,3.380164,2.032528,-6.299294,0.008080,0.171784,9.805004,0.046003,-0.038061,-0.000121,2014,10,8,14,36,31,0,2014-10-08 14:36:31:809
3.380164,2.032528,-6.299294,3.380164,2.032528,-6.299294,-0.127491,3.176806,9.276783,0.046003,-0.038061,-0.000121,2014,10,8,14,36,31,0,2014-10-08 14:36:31:812
3.380164,2.032528,-6.299294,3.380164,2.032528,-6.299294,-0.127491,3.176806,9.276783,-0.386494,0.139838,-0.736219,2014,10,8,14,36,32,0,2014-10-08 14:36:32:8
14.574853,-2.646042,1.263241,3.380164,2.032528,-6.299294,-0.127491,3.176806,9.276783,-0.386494,0.139838,-0.736219,2014,10,8,14,36,32,0,2014-10-08 14:36:32:10
14.574853,-2.646042,1.263241,14.622138,-6.049399,-7.933636,-0.127491,3.176806,9.276783,-0.386494,0.139838,-0.736219,2014,10,8,14,36,32,0,2014-10-08 14:36:32:13
14.622138,-6.049399,-7.933636,14.622138,-6.049399,-7.933636,-0.127491,3.176806,9.276783,-5.735235,-3.396825,-6.436443,2014,10,8,14,36,32,0,2014-10-08 14:36:32:206
3.872771,-19.525164,5.012560,14.622138,-6.049399,-7.933636,-0.127491,3.176806,9.276783,-5.735235,-3.396825,-6.436443,2014,10,8,14,36,32,0,2014-10-08 14:36:32:208
3.872771,-19.525164,5.012560,1.921048,-17.918356,-4.462492,-0.127491,3.176806,9.276783,-5.735235,-3.396825,-6.436443,2014,10,8,14,36,32,0,2014-10-08 14:36:32:211
1.921048,-17.918356,-4.462492,1.921048,-17.918356,-4.462492,1.951723,-1.606809,9.475053,-5.735235,-3.396825,-6.436443,2014,10,8,14,36,32,0,2014-10-08 14:36:32:213
1.921048,-17.918356,-4.462492,1.921048,-17.918356,-4.462492,1.951723,-1.606809,9.475053,-0.468568,-0.539786,5.142981,2014,10,8,14,36,32,0,2014-10-08 14:36:32:404
19.587713,2.621202,1.117194,1.921048,-17.918356,-4.462492,1.951723,-1.606809,9.475053,-0.468568,-0.539786,5.142981,2014,10,8,14,36,32,0,2014-10-08 14:36:32:406
19.587713,2.621202,1.117194,12.385205,7.787889,-3.077746,1.951723,-1.606809,9.475053,-0.468568,-0.539786,5.142981,2014,10,8,14,36,32,0,2014-10-08 14:36:32:408
12.385205,7.787889,-3.077746,12.385205,7.787889,-3.077746,7.202507,-5.166687,4.194941,-0.468568,-0.539786,5.142981,2014,10,8,14,36,32,0,2014-10-08 14:36:32:410
12.385205,7.787889,-3.077746,12.385205,7.787889,-3.077746,7.202507,-5.166687,4.194941,0.823598,0.247445,5.657504,2014,10,8,14,36,32,0,2014-10-08 14:36:32:606
19.587713,-19.525164,1.007061,12.385205,7.787889,-3.077746,7.202507,-5.166687,4.194941,0.823598,0.247445,5.657504,2014,10,8,14,36,32,0,2014-10-08 14:36:32:608
19.587713,-19.525164,1.007061,24.262392,-12.230630,-3.587262,7.202507,-5.166687,4.194941,0.823598,0.247445,5.657504,2014,10,8,14,36,32,0,2014-10-08 14:36:32:610
24.262392,-12.230630,-3.587262,24.262392,-12.230630,-3.587262,-4.674679,-7.294534,4.594324,0.823598,0.247445,5.657504,2014,10,8,14,36,32,0,2014-10-08 14:36:32:612
24.262392,-12.230630,-3.587262,24.262392,-12.230630,-3.587262,-4.674679,-7.294534,4.594324,-3.097651,4.309301,-12.875966,2014,10,8,14,36,32,0,2014-10-08 14:36:32:804
-7.925855,-10.877307,0.037409,24.262392,-12.230630,-3.587262,-4.674679,-7.294534,4.594324,-3.097651,4.309301,-12.875966,2014,10,8,14,36,32,0,2014-10-08 14:36:32:806
-7.925855,-10.877307,0.037409,-11.421988,-2.159420,-2.781613,-4.674679,-7.294534,4.594324,-3.097651,4.309301,-12.875966,2014,10,8,14,36,32,0,2014-10-08 14:36:32:808
-11.421988,-2.159420,-2.781613,-11.421988,-2.159420,-2.781613,3.496133,-8.717887,2.819023,-3.097651,4.309301,-12.875966,2014,10,8,14,36,32,0,2014-10-08 14:36:32:811
-11.421988,-2.159420,-2.781613,-11.421988,-2.159420,-2.781613,3.496133,-8.717887,2.819023,-1.625456,0.581941,-1.284823,2014,10,8,14,36,33,0,2014-10-08 14:36:33:5
19.430294,-19.525164,2.843414,-11.421988,-2.159420,-2.781613,3.496133,-8.717887,2.819023,-1.625456,0.581941,-1.284823,2014,10,8,14,36,33,0,2014-10-08 14:36:33:7
19.430294,-19.525164,2.843414,10.995670,-17.589451,-1.769614,3.496133,-8.717887,2.819023,-1.625456,0.581941,-1.284823,2014,10,8,14,36,33,0,2014-10-08 14:36:33:9
10.995670,-17.589451,-1.769614,10.995670,-17.589451,-1.769614,8.434623,-1.935712,4.613028,-1.625456,0.581941,-1.284823,2014,10,8,14,36,33,0,2014-10-08 14:36:33:12
10.995670,-17.589451,-1.769614,10.995670,-17.589451,-1.769614,8.434623,-1.935712,4.613028,-0.670979,-0.567479,7.974455,2014,10,8,14,36,33,0,2014-10-08 14:36:33:231
9.853487,-4.606893,3.882497,10.995670,-17.589451,-1.769614,8.434623,-1.935712,4.613028,-0.670979,-0.567479,7.974455,2014,10,8,14,36,33,0,2014-10-08 14:36:33:233
9.853487,-4.606893,3.882497,4.956596,3.033603,0.165798,8.434623,-1.935712,4.613028,-0.670979,-0.567479,7.974455,2014,10,8,14,36,33,0,2014-10-08 14:36:33:235
4.956596,3.033603,0.165798,4.956596,3.033603,0.165798,4.896891,-7.640496,3.716699,-0.670979,-0.567479,7.974455,2014,10,8,14,36,33,0,2014-10-08 14:36:33:258
4.956596,3.033603,0.165798,4.956596,3.033603,0.165798,4.896891,-7.640496,3.716699,-0.081947,-2.473219,6.686557,2014,10,8,14,36,33,0,2014-10-08 14:36:33:400
7.945308,2.324321,2.733280,4.956596,3.033603,0.165798,4.896891,-7.640496,3.716699,-0.081947,-2.473219,6.686557,2014,10,8,14,36,33,0,2014-10-08 14:36:33:403
7.945308,2.324321,2.733280,15.358654,7.762152,-0.679205,4.896891,-7.640496,3.716699,-0.081947,-2.473219,6.686557,2014,10,8,14,36,33,0,2014-10-08 14:36:33:410
15.358654,7.762152,-0.679205,15.358654,7.762152,-0.679205,-7.413346,-5.437830,3.412486,-0.081947,-2.473219,6.686557,2014,10,8,14,36,33,0,2014-10-08 14:36:33:412
15.358654,7.762152,-0.679205,15.358654,7.762152,-0.679205,-7.413346,-5.437830,3.412486,1.751373,2.005152,-4.459304,2014,10,8,14,36,33,0,2014-10-08 14:36:33:600
11.424083,-19.525164,-7.480384,15.358654,7.762152,-0.679205,-7.413346,-5.437830,3.412486,1.751373,2.005152,-4.459304,2014,10,8,14,36,33,0,2014-10-08 14:36:33:608
11.424083,-19.525164,-7.480384,19.909733,-16.226553,-11.125257,-7.413346,-5.437830,3.412486,1.751373,2.005152,-4.459304,2014,10,8,14,36,33,0,2014-10-08 14:36:33:610
19.909733,-16.226553,-11.125257,19.909733,-16.226553,-11.125257,-8.485649,-3.298611,3.644873,1.751373,2.005152,-4.459304,2014,10,8,14,36,33,0,2014-10-08 14:36:33:613
19.909733,-16.226553,-11.125257,19.909733,-16.226553,-11.125257,-8.485649,-3.298611,3.644873,0.346289,1.004869,-8.265494,2014,10,8,14,36,33,0,2014-10-08 14:36:33:801
-6.453421,-8.583662,3.726874,19.909733,-16.226553,-11.125257,-8.485649,-3.298611,3.644873,0.346289,1.004869,-8.265494,2014,10,8,14,36,33,0,2014-10-08 14:36:33:803
-6.453421,-8.583662,3.726874,-11.039814,-0.163853,1.666963,-8.485649,-3.298611,3.644873,0.346289,1.004869,-8.265494,2014,10,8,14,36,33,0,2014-10-08 14:36:33:805
-11.039814,-0.163853,1.666963,-11.039814,-0.163853,1.666963,4.586392,-8.419808,2.059911,0.346289,1.004869,-8.265494,2014,10,8,14,36,33,0,2014-10-08 14:36:33:807
-11.039814,-0.163853,1.666963,-11.039814,-0.163853,1.666963,4.586392,-8.419808,2.059911,-1.897136,1.861335,0.635853,2014,10,8,14,36,34,0,2014-10-08 14:36:34:8
19.587713,-19.525164,-2.687192,-11.039814,-0.163853,1.666963,4.586392,-8.419808,2.059911,-1.897136,1.861335,0.635853,2014,10,8,14,36,34,0,2014-10-08 14:36:34:10
19.587713,-19.525164,-2.687192,11.211148,-15.565753,-5.900660,4.586392,-8.419808,2.059911,-1.897136,1.861335,0.635853,2014,10,8,14,36,34,0,2014-10-08 14:36:34:13
11.211148,-15.565753,-5.900660,11.211148,-15.565753,-5.900660,8.376564,-3.959411,3.213468,-1.897136,1.861335,0.635853,2014,10,8,14,36,34,0,2014-10-08 14:36:34:17
11.211148,-15.565753,-5.900660,11.211148,-15.565753,-5.900660,8.376564,-3.959411,3.213468,-0.521880,-4.478053,9.149446,2014,10,8,14,36,34,0,2014-10-08 14:36:34:202
8.507945,4.771195,4.682161,11.211148,-15.565753,-5.900660,8.376564,-3.959411,3.213468,-0.521880,-4.478053,9.149446,2014,10,8,14,36,34,0,2014-10-08 14:36:34:205
8.507945,4.771195,4.682161,8.042722,14.467413,3.289633,8.376564,-3.959411,3.213468,-0.521880,-4.478053,9.149446,2014,10,8,14,36,34,0,2014-10-08 14:36:34:207
8.042722,14.467413,3.289633,8.042722,14.467413,3.289633,0.465223,-9.696218,1.392528,-0.521880,-4.478053,9.149446,2014,10,8,14,36,34,0,2014-10-08 14:36:34:209
8.042722,14.467413,3.289633,8.042722,14.467413,3.289633,0.465223,-9.696218,1.392528,-0.300305,-1.273738,2.178356,2014,10,8,14,36,34,0,2014-10-08 14:36:34:408
19.162144,-19.525164,-4.437354,8.042722,14.467413,3.289633,0.465223,-9.696218,1.392528,-0.300305,-1.273738,2.178356,2014,10,8,14,36,34,0,2014-10-08 14:36:34:411
19.162144,-19.525164,-4.437354,26.304794,-16.225954,-10.291327,0.465223,-9.696218,1.392528,-0.300305,-1.273738,2.178356,2014,10,8,14,36,34,0,2014-10-08 14:36:34:413
26.304794,-16.225954,-10.291327,26.304794,-16.225954,-10.291327,-7.142652,-3.299210,5.853973,-0.300305,-1.273738,2.178356,2014,10,8,14,36,34,0,2014-10-08 14:36:34:415
26.304794,-16.225954,-10.291327,26.304794,-16.225954,-10.291327,-7.142652,-3.299210,5.853973,0.479485,5.766590,-7.296108,2014,10,8,14,36,34,0,2014-10-08 14:36:34:604
-3.609109,-12.253973,-0.972944,26.304794,-16.225954,-10.291327,-7.142652,-3.299210,5.853973,0.479485,5.766590,-7.296108,2014,10,8,14,36,34,0,2014-10-08 14:36:34:606
-3.609109,-12.253973,-0.972944,1.525106,-4.227861,-3.295020,-7.142652,-3.299210,5.853973,0.479485,5.766590,-7.296108,2014,10,8,14,36,34,0,2014-10-08 14:36:34:608
1.525106,-4.227861,-3.295020,1.525106,-4.227861,-3.295020,-5.134216,-8.026113,2.322076,0.479485,5.766590,-7.296108,2014,10,8,14,36,34,0,2014-10-08 14:36:34:610
1.525106,-4.227861,-3.295020,1.525106,-4.227861,-3.295020,-5.134216,-8.026113,2.322076,4.825764,2.894637,-3.822281,2014,10,8,14,36,34,0,2014-10-08 14:36:34:804
1.016488,-14.138210,-6.450877,1.525106,-4.227861,-3.295020,-5.134216,-8.026113,2.322076,4.825764,2.894637,-3.822281,2014,10,8,14,36,34,0,2014-10-08 14:36:34:806
1.016488,-14.138210,-6.450877,-1.785326,-6.483498,-11.903073,-5.134216,-8.026113,2.322076,4.825764,2.894637,-3.822281,2014,10,8,14,36,34,0,2014-10-08 14:36:34:807
-1.785326,-6.483498,-11.903073,-1.785326,-6.483498,-11.903073,2.801815,-7.654712,5.452196,4.825764,2.894637,-3.822281,2014,10,8,14,36,34,0,2014-10-08 14:36:34:809
-1.785326,-6.483498,-11.903073,-1.785326,-6.483498,-11.903073,2.801815,-7.654712,5.452196,-3.002864,-1.089452,1.303772,2014,10,8,14,36,35,0,2014-10-08 14:36:35:4
14.740052,-19.525164,6.283882,-1.785326,-6.483498,-11.903073,2.801815,-7.654712,5.452196,-3.002864,-1.089452,1.303772,2014,10,8,14,36,35,0,2014-10-08 14:36:35:6
14.740052,-19.525164,6.283882,13.145963,-10.830919,2.036418,2.801815,-7.654712,5.452196,-3.002864,-1.089452,1.303772,2014,10,8,14,36,35,0,2014-10-08 14:36:35:8
13.145963,-10.830919,2.036418,13.145963,-10.830919,2.036418,1.594089,-8.694244,4.247463,-3.002864,-1.089452,1.303772,2014,10,8,14,36,35,0,2014-10-08 14:36:35:10
13.145963,-10.830919,2.036418,13.145963,-10.830919,2.036418,1.594089,-8.694244,4.247463,0.229137,-4.564342,8.086311,2014,10,8,14,36,35,0,2014-10-08 14:36:35:204
6.238242,2.784008,1.533785,13.145963,-10.830919,2.036418,1.594089,-8.694244,4.247463,0.229137,-4.564342,8.086311,2014,10,8,14,36,35,0,2014-10-08 14:36:35:206
6.238242,2.784008,1.533785,11.836036,10.733954,0.255132,1.594089,-8.694244,4.247463,0.229137,-4.564342,8.086311,2014,10,8,14,36,35,0,2014-10-08 14:36:35:207
11.836036,10.733954,0.255132,11.836036,10.733954,0.255132,-5.597793,-7.949947,1.278653,0.229137,-4.564342,8.086311,2014,10,8,14,36,35,0,2014-10-08 14:36:35:209
11.836036,10.733954,0.255132,11.836036,10.733954,0.255132,-5.597793,-7.949947,1.278653,0.343121,0.978229,-0.147117,2014,10,8,14,36,35,0,2014-10-08 14:36:35:409
19.587713,-16.115820,-3.082235,11.836036,10.733954,0.255132,-5.597793,-7.949947,1.278653,0.343121,0.978229,-0.147117,2014,10,8,14,36,35,0,2014-10-08 14:36:35:411
19.587713,-16.115820,-3.082235,28.025328,-17.634792,-7.843704,-5.597793,-7.949947,1.278653,0.343121,0.978229,-0.147117,2014,10,8,14,36,35,0,2014-10-08 14:36:35:413
28.025328,-17.634792,-7.843704,28.025328,-17.634792,-7.843704,-8.437615,1.518971,4.761468,0.343121,0.978229,-0.147117,2014,10,8,14,36,35,0,2014-10-08 14:36:35:415
28.025328,-17.634792,-7.843704,28.025328,-17.634792,-7.843704,-8.437615,1.518971,4.761468,0.812902,5.607868,-7.776541,2014,10,8,14,36,35,0,2014-10-08 14:36:35:605
9.422530,-19.525164,-2.648885,28.025328,-17.634792,-7.843704,-8.437615,1.518971,4.761468,0.812902,5.607868,-7.776541,2014,10,8,14,36,35,0,2014-10-08 14:36:35:607
9.422530,-19.525164,-2.648885,16.943167,-13.232903,-2.512415,-8.437615,1.518971,4.761468,0.812902,5.607868,-7.776541,2014,10,8,14,36,35,0,2014-10-08 14:36:35:609
16.943167,-13.232903,-2.512415,16.943167,-13.232903,-2.512415,-7.520637,-6.292261,-0.136469,0.812902,5.607868,-7.776541,2014,10,8,14,36,35,0,2014-10-08 14:36:35:611
16.943167,-13.232903,-2.512415,16.943167,-13.232903,-2.512415,-7.520637,-6.292261,-0.136469,1.975100,5.311727,-5.048398,2014,10,8,14,36,35,0,2014-10-08 14:36:35:804
-4.284274,-8.897303,-8.184279,16.943167,-13.232903,-2.512415,-7.520637,-6.292261,-0.136469,1.975100,5.311727,-5.048398,2014,10,8,14,36,35,0,2014-10-08 14:36:35:806
-4.284274,-8.897303,-8.184279,-9.917382,-1.749114,-11.836783,-7.520637,-6.292261,-0.136469,1.975100,5.311727,-5.048398,2014,10,8,14,36,35,0,2014-10-08 14:36:35:807
-9.917382,-1.749114,-11.836783,-9.917382,-1.749114,-11.836783,5.633108,-7.148189,3.652504,1.975100,5.311727,-5.048398,2014,10,8,14,36,35,0,2014-10-08 14:36:35:809
-9.917382,-1.749114,-11.836783,-9.917382,-1.749114,-11.836783,5.633108,-7.148189,3.652504,-2.683301,-0.856154,0.039305,2014,10,8,14,36,36,0,2014-10-08 14:36:36:4
19.587713,-19.525164,-0.417489,-9.917382,-1.749114,-11.836783,5.633108,-7.148189,3.652504,-2.683301,-0.856154,0.039305,2014,10,8,14,36,36,0,2014-10-08 14:36:36:5
19.587713,-19.525164,-0.417489,14.222157,-14.302362,-6.750153,5.633108,-7.148189,3.652504,-2.683301,-0.856154,0.039305,2014,10,8,14,36,36,0,2014-10-08 14:36:36:8
14.222157,-14.302362,-6.750153,14.222157,-14.302362,-6.750153,5.365556,-5.222801,6.332664,-2.683301,-0.856154,0.039305,2014,10,8,14,36,36,0,2014-10-08 14:36:36:10
14.222157,-14.302362,-6.750153,14.222157,-14.302362,-6.750153,5.365556,-5.222801,6.332664,-1.543468,-6.747066,5.525417,2014,10,8,14,36,36,0,2014-10-08 14:36:36:205
8.821586,-5.803994,3.554492,14.222157,-14.302362,-6.750153,5.365556,-5.222801,6.332664,-1.543468,-6.747066,5.525417,2014,10,8,14,36,36,0,2014-10-08 14:36:36:207
8.821586,-5.803994,3.554492,5.317223,3.089418,5.745037,5.365556,-5.222801,6.332664,-1.543468,-6.747066,5.525417,2014,10,8,14,36,36,0,2014-10-08 14:36:36:210
5.317223,3.089418,5.745037,5.317223,3.089418,5.745037,3.504363,-8.893412,-2.190545,-1.543468,-6.747066,5.525417,2014,10,8,14,36,36,0,2014-10-08 14:36:36:213
5.317223,3.089418,5.745037,5.317223,3.089418,5.745037,3.504363,-8.893412,-2.190545,1.203892,-3.732381,5.130198,2014,10,8,14,36,36,0,2014-10-08 14:36:36:403
3.152116,4.706552,0.904110,5.317223,3.089418,5.745037,3.504363,-8.893412,-2.190545,1.203892,-3.732381,5.130198,2014,10,8,14,36,36,0,2014-10-08 14:36:36:405
3.152116,4.706552,0.904110,12.454188,7.040898,-1.143830,3.504363,-8.893412,-2.190545,1.203892,-3.732381,5.130198,2014,10,8,14,36,36,0,2014-10-08 14:36:36:407
12.454188,7.040898,-1.143830,12.454188,7.040898,-1.143830,-9.302073,-2.334347,2.047940,1.203892,-3.732381,5.130198,2014,10,8,14,36,36,0,2014-10-08 14:36:36:415
12.454188,7.040898,-1.143830,12.454188,7.040898,-1.143830,-9.302073,-2.334347,2.047940,5.319008,1.532155,-4.611645,2014,10,8,14,36,36,0,2014-10-08 14:36:36:605
19.415928,-19.525164,6.173748,12.454188,7.040898,-1.143830,-9.302073,-2.334347,2.047940,5.319008,1.532155,-4.611645,2014,10,8,14,36,36,0,2014-10-08 14:36:36:607
19.415928,-19.525164,6.173748,28.864346,-19.167082,3.571401,-9.302073,-2.334347,2.047940,5.319008,1.532155,-4.611645,2014,10,8,14,36,36,0,2014-10-08 14:36:36:610
28.864346,-19.167082,3.571401,28.864346,-19.167082,3.571401,-9.448418,-0.358083,2.602348,5.319008,1.532155,-4.611645,2014,10,8,14,36,36,0,2014-10-08 14:36:36:612
28.864346,-19.167082,3.571401,28.864346,-19.167082,3.571401,-9.448418,-0.358083,2.602348,-3.972228,0.957978,-8.181346,2014,10,8,14,36,36,0,2014-10-08 14:36:36:803
-3.228431,-13.273903,-7.037457,28.864346,-19.167082,3.571401,-9.448418,-0.358083,2.602348,-3.972228,0.957978,-8.181346,2014,10,8,14,36,36,0,2014-10-08 14:36:36:805
-3.228431,-13.273903,-7.037457,-5.000889,-3.944447,-9.484929,-9.448418,-0.358083,2.602348,-3.972228,0.957978,-8.181346,2014,10,8,14,36,36,0,2014-10-08 14:36:36:807
-5.000889,-3.944447,-9.484929,-5.000889,-3.944447,-9.484929,1.772457,-9.329455,2.447473,-3.972228,0.957978,-8.181346,2014,10,8,14,36,36,0,2014-10-08 14:36:36:816
-5.000889,-3.944447,-9.484929,-5.000889,-3.944447,-9.484929,1.772457,-9.329455,2.447473,-1.822508,3.996107,-2.015597,2014,10,8,14,36,37,0,2014-10-08 14:36:37:2
0.504129,-19.525164,-3.436577,-5.000889,-3.944447,-9.484929,1.772457,-9.329455,2.447473,-1.822508,3.996107,-2.015597,2014,10,8,14,36,37,0,2014-10-08 14:36:37:4
0.504129,-19.525164,-3.436577,-7.200861,-14.997579,-7.474399,1.772457,-9.329455,2.447473,-1.822508,3.996107,-2.015597,2014,10,8,14,36,37,0,2014-10-08 14:36:37:7
-7.200861,-14.997579,-7.474399,-7.200861,-14.997579,-7.474399,1.772457,-9.329455,2.447473,-4.826553,-1.109705,1.224937,2014,10,8,14,36,37,0,2014-10-08 14:36:37:208
9.338734,-15.119833,2.304718,-7.200861,-14.997579,-7.474399,1.772457,-9.329455,2.447473,-4.826553,-1.109705,1.224937,2014,10,8,14,36,37,0,2014-10-08 14:36:37:209
9.338734,-15.119833,2.304718,3.219603,-7.460332,2.548029,1.772457,-9.329455,2.447473,-4.826553,-1.109705,1.224937,2014,10,8,14,36,37,0,2014-10-08 14:36:37:211
3.219603,-7.460332,2.548029,3.219603,-7.460332,2.548029,6.119131,-7.659500,-0.243311,-4.826553,-1.109705,1.224937,2014,10,8,14,36,37,0,2014-10-08 14:36:37:213
3.219603,-7.460332,2.548029,3.219603,-7.460332,2.548029,6.119131,-7.659500,-0.243311,0.409221,-6.547880,5.117413,2014,10,8,14,36,37,0,2014-10-08 14:36:37:402
6.245425,-0.962918,1.145925,3.219603,-7.460332,2.548029,6.119131,-7.659500,-0.243311,0.409221,-6.547880,5.117413,2014,10,8,14,36,37,0,2014-10-08 14:36:37:404
6.245425,-0.962918,1.145925,9.066992,6.252607,7.158214,6.119131,-7.659500,-0.243311,0.409221,-6.547880,5.117413,2014,10,8,14,36,37,0,2014-10-08 14:36:37:406
9.066992,6.252607,7.158214,9.066992,6.252607,7.158214,-2.821567,-7.215525,-6.012290,0.409221,-6.547880,5.117413,2014,10,8,14,36,37,0,2014-10-08 14:36:37:408
9.066992,6.252607,7.158214,9.066992,6.252607,7.158214,-2.821567,-7.215525,-6.012290,-0.575083,1.419232,-1.393483,2014,10,8,14,36,37,0,2014-10-08 14:36:37:612
17.155802,-19.525164,-1.624167,9.066992,6.252607,7.158214,-2.821567,-7.215525,-6.012290,-0.575083,1.419232,-1.393483,2014,10,8,14,36,37,0,2014-10-08 14:36:37:614
17.155802,-19.525164,-1.624167,24.500166,-14.428657,2.407968,-2.821567,-7.215525,-6.012290,-0.575083,1.419232,-1.393483,2014,10,8,14,36,37,0,2014-10-08 14:36:37:616
24.500166,-14.428657,2.407968,24.500166,-14.428657,2.407968,-7.344363,-5.096507,-4.032135,-0.575083,1.419232,-1.393483,2014,10,8,14,36,37,0,2014-10-08 14:36:37:618
24.500166,-14.428657,2.407968,24.500166,-14.428657,2.407968,-7.344363,-5.096507,-4.032135,-1.309050,2.947887,-6.542971,2014,10,8,14,36,37,0,2014-10-08 14:36:37:810
-9.170840,-10.273969,-11.323077,24.500166,-14.428657,2.407968,-7.344363,-5.096507,-4.032135,-1.309050,2.947887,-6.542971,2014,10,8,14,36,37,0,2014-10-08 14:36:37:811
-9.170840,-10.273969,-11.323077,-13.458107,-1.718588,-9.179219,-7.344363,-5.096507,-4.032135,-1.309050,2.947887,-6.542971,2014,10,8,14,36,37,0,2014-10-08 14:36:37:819
-13.458107,-1.718588,-9.179219,-13.458107,-1.718588,-9.179219,4.287267,-8.555381,-2.143858,-1.309050,2.947887,-6.542971,2014,10,8,14,36,37,0,2014-10-08 14:36:37:821
-13.458107,-1.718588,-9.179219,-13.458107,-1.718588,-9.179219,4.287267,-8.555381,-2.143858,-0.520755,3.375058,-2.356482,2014,10,8,14,36,38,0,2014-10-08 14:36:38:3
3.458574,-19.525164,-9.276035,-13.458107,-1.718588,-9.179219,4.287267,-8.555381,-2.143858,-0.520755,3.375058,-2.356482,2014,10,8,14,36,38,0,2014-10-08 14:36:38:12
3.458574,-19.525164,-9.276035,-13.458107,-1.718588,-9.179219,4.287267,-8.555381,-2.143858,-1.251483,-4.300185,2.095253,2014,10,8,14,36,38,0,2014-10-08 14:36:38:203
13.229311,-9.560496,-2.241871,-13.458107,-1.718588,-9.179219,4.287267,-8.555381,-2.143858,-1.251483,-4.300185,2.095253,2014,10,8,14,36,38,0,2014-10-08 14:36:38:205
13.229311,-9.560496,-2.241871,4.387374,-5.338022,-2.644396,4.287267,-8.555381,-2.143858,-1.251483,-4.300185,2.095253,2014,10,8,14,36,38,0,2014-10-08 14:36:38:207
4.387374,-5.338022,-2.644396,4.387374,-5.338022,-2.644396,8.841936,-4.222474,0.402525,-1.251483,-4.300185,2.095253,2014,10,8,14,36,38,0,2014-10-08 14:36:38:209
4.387374,-5.338022,-2.644396,4.387374,-5.338022,-2.644396,8.841936,-4.222474,0.402525,1.201821,-3.524673,6.434075,2014,10,8,14,36,38,0,2014-10-08 14:36:38:403
6.465691,3.126379,1.186626,4.387374,-5.338022,-2.644396,8.841936,-4.222474,0.402525,1.201821,-3.524673,6.434075,2014,10,8,14,36,38,0,2014-10-08 14:36:38:405
6.465691,3.126379,1.186626,7.686435,12.244097,4.585196,8.841936,-4.222474,0.402525,1.201821,-3.524673,6.434075,2014,10,8,14,36,38,0,2014-10-08 14:36:38:407
7.686435,12.244097,4.585196,7.686435,12.244097,4.585196,-1.220744,-9.117719,-3.398569,1.201821,-3.524673,6.434075,2014,10,8,14,36,38,0,2014-10-08 14:36:38:412
7.686435,12.244097,4.585196,7.686435,12.244097,4.585196,-1.220744,-9.117719,-3.398569,0.118447,0.613879,-2.962622,2014,10,8,14,36,38,0,2014-10-08 14:36:38:604
11.184663,-19.525164,-6.869863,7.686435,12.244097,4.585196,-1.220744,-9.117719,-3.398569,0.118447,0.613879,-2.962622,2014,10,8,14,36,38,0,2014-10-08 14:36:38:606
11.184663,-19.525164,-6.869863,15.897499,-11.364228,-4.156933,-1.220744,-9.117719,-3.398569,0.118447,0.613879,-2.962622,2014,10,8,14,36,38,0,2014-10-08 14:36:38:608
15.897499,-11.364228,-4.156933,15.897499,-11.364228,-4.156933,-4.712836,-8.160935,-2.712930,0.118447,0.613879,-2.962622,2014,10,8,14,36,38,0,2014-10-08 14:36:38:610
15.897499,-11.364228,-4.156933,15.897499,-11.364228,-4.156933,-4.712836,-8.160935,-2.712930,-0.489878,4.312496,-5.167713,2014,10,8,14,36,38,0,2014-10-08 14:36:38:804
-9.608979,-6.948422,-7.949647,15.897499,-11.364228,-4.156933,-4.712836,-8.160935,-2.712930,-0.489878,4.312496,-5.167713,2014,10,8,14,36,38,0,2014-10-08 14:36:38:806
-9.608979,-6.948422,-7.949647,-15.850364,0.353294,-5.974581,-4.712836,-8.160935,-2.712930,-0.489878,4.312496,-5.167713,2014,10,8,14,36,38,0,2014-10-08 14:36:38:809
-15.850364,0.353294,-5.974581,-15.850364,0.353294,-5.974581,6.241385,-7.301717,-1.975067,-0.489878,4.312496,-5.167713,2014,10,8,14,36,38,0,2014-10-08 14:36:38:811
-15.850364,0.353294,-5.974581,-15.850364,0.353294,-5.974581,6.241385,-7.301717,-1.975067,0.459272,1.696206,-1.037683,2014,10,8,14,36,39,0,2014-10-08 14:36:39:3
4.392313,-19.525164,-17.339706,-15.850364,0.353294,-5.974581,6.241385,-7.301717,-1.975067,0.459272,1.696206,-1.037683,2014,10,8,14,36,39,0,2014-10-08 14:36:39:5
4.392313,-19.525164,-17.339706,-15.850364,0.353294,-5.974581,6.241385,-7.301717,-1.975067,-0.490944,-3.583244,2.762116,2014,10,8,14,36,39,0,2014-10-08 14:36:39:209
12.448801,-5.906944,1.476325,-15.850364,0.353294,-5.974581,6.241385,-7.301717,-1.975067,-0.490944,-3.583244,2.762116,2014,10,8,14,36,39,0,2014-10-08 14:36:39:213
12.448801,-5.906944,1.476325,4.444686,-0.252588,1.840543,6.241385,-7.301717,-1.975067,-0.490944,-3.583244,2.762116,2014,10,8,14,36,39,0,2014-10-08 14:36:39:215
4.444686,-0.252588,1.840543,4.444686,-0.252588,1.840543,8.004115,-5.654356,-0.364218,-0.490944,-3.583244,2.762116,2014,10,8,14,36,39,0,2014-10-08 14:36:39:217
4.444686,-0.252588,1.840543,4.444686,-0.252588,1.840543,8.004115,-5.654356,-0.364218,0.871589,-3.486323,4.823395,2014,10,8,14,36,39,0,2014-10-08 14:36:39:403
11.155932,-4.295647,2.345420,4.444686,-0.252588,1.840543,8.004115,-5.654356,-0.364218,0.871589,-3.486323,4.823395,2014,10,8,14,36,39,0,2014-10-08 14:36:39:405
11.155932,-4.295647,2.345420,14.364761,4.649839,4.764910,8.004115,-5.654356,-0.364218,0.871589,-3.486323,4.823395,2014,10,8,14,36,39,0,2014-10-08 14:36:39:407
14.364761,4.649839,4.764910,14.364761,4.649839,4.764910,-3.208829,-8.945486,-2.419490,0.871589,-3.486323,4.823395,2014,10,8,14,36,39,0,2014-10-08 14:36:39:409
14.364761,4.649839,4.764910,14.364761,4.649839,4.764910,-3.208829,-8.945486,-2.419490,0.527509,3.160927,-5.767464,2014,10,8,14,36,39,0,2014-10-08 14:36:39:603
6.954108,-19.525164,0.485125,14.364761,4.649839,4.764910,-3.208829,-8.945486,-2.419490,0.527509,3.160927,-5.767464,2014,10,8,14,36,39,0,2014-10-08 14:36:39:605
6.954108,-19.525164,0.485125,8.513632,-10.207379,3.115305,-3.208829,-8.945486,-2.419490,0.527509,3.160927,-5.767464,2014,10,8,14,36,39,0,2014-10-08 14:36:39:607
8.513632,-10.207379,3.115305,8.513632,-10.207379,3.115305,-1.559523,-9.317784,-2.630180,0.527509,3.160927,-5.767464,2014,10,8,14,36,39,0,2014-10-08 14:36:39:609
8.513632,-10.207379,3.115305,8.513632,-10.207379,3.115305,-1.559523,-9.317784,-2.630180,-0.466383,3.797955,-4.834292,2014,10,8,14,36,39,0,2014-10-08 14:36:39:803
-5.155764,-8.748862,-6.702269,8.513632,-10.207379,3.115305,-1.559523,-9.317784,-2.630180,-0.466383,3.797955,-4.834292,2014,10,8,14,36,39,0,2014-10-08 14:36:39:807
-5.155764,-8.748862,-6.702269,-13.378051,-3.848979,-8.836550,-1.559523,-9.317784,-2.630180,-0.466383,3.797955,-4.834292,2014,10,8,14,36,39,0,2014-10-08 14:36:39:809
-13.378051,-3.848979,-8.836550,-13.378051,-3.848979,-8.836550,8.222287,-4.899883,2.134281,-0.466383,3.797955,-4.834292,2014,10,8,14,36,39,0,2014-10-08 14:36:39:811
-13.378051,-3.848979,-8.836550,-13.378051,-3.848979,-8.836550,8.222287,-4.899883,2.134281,-1.460242,-1.682841,0.872326,2014,10,8,14,36,40,0,2014-10-08 14:36:40:4
19.578733,-19.525164,-17.854460,-13.378051,-3.848979,-8.836550,8.222287,-4.899883,2.134281,-1.460242,-1.682841,0.872326,2014,10,8,14,36,40,0,2014-10-08 14:36:40:7
19.578733,-19.525164,-17.854460,-13.378051,-3.848979,-8.836550,8.222287,-4.899883,2.134281,0.671352,-7.220085,2.166622,2014,10,8,14,36,40,0,2014-10-08 14:36:40:203
14.198963,-2.806453,0.135572,-13.378051,-3.848979,-8.836550,8.222287,-4.899883,2.134281,0.671352,-7.220085,2.166622,2014,10,8,14,36,40,0,2014-10-08 14:36:40:205
14.198963,-2.806453,0.135572,6.396858,2.887258,1.832013,8.222287,-4.899883,2.134281,0.671352,-7.220085,2.166622,2014,10,8,14,36,40,0,2014-10-08 14:36:40:207
6.396858,2.887258,1.832013,6.396858,2.887258,1.832013,7.802105,-5.693711,-1.696442,0.671352,-7.220085,2.166622,2014,10,8,14,36,40,0,2014-10-08 14:36:40:209
6.396858,2.887258,1.832013,6.396858,2.887258,1.832013,7.802105,-5.693711,-1.696442,1.423428,-2.457288,4.044683,2014,10,8,14,36,40,0,2014-10-08 14:36:40:403
15.903634,-4.556615,-2.770989,6.396858,2.887258,1.832013,7.802105,-5.693711,-1.696442,1.423428,-2.457288,4.044683,2014,10,8,14,36,40,0,2014-10-08 14:36:40:405
15.903634,-4.556615,-2.770989,19.573795,4.194043,-0.295534,7.802105,-5.693711,-1.696442,1.423428,-2.457288,4.044683,2014,10,8,14,36,40,0,2014-10-08 14:36:40:408
19.573795,4.194043,-0.295534,19.573795,4.194043,-0.295534,-3.670161,-8.750658,-2.475455,1.423428,-2.457288,4.044683,2014,10,8,14,36,40,0,2014-10-08 14:36:40:410
19.573795,4.194043,-0.295534,19.573795,4.194043,-0.295534,-3.670161,-8.750658,-2.475455,1.489545,5.853884,-7.060707,2014,10,8,14,36,40,0,2014-10-08 14:36:40:603
5.529559,-19.525164,5.591958,19.573795,4.194043,-0.295534,-3.670161,-8.750658,-2.475455,1.489545,5.853884,-7.060707,2014,10,8,14,36,40,0,2014-10-08 14:36:40:605
5.529559,-19.525164,5.591958,6.378303,-10.081684,8.096292,-3.670161,-8.750658,-2.475455,1.489545,5.853884,-7.060707,2014,10,8,14,36,40,0,2014-10-08 14:36:40:607
6.378303,-10.081684,8.096292,6.378303,-10.081684,8.096292,-0.848745,-9.443480,-2.504335,1.489545,5.853884,-7.060707,2014,10,8,14,36,40,0,2014-10-08 14:36:40:609
6.378303,-10.081684,8.096292,6.378303,-10.081684,8.096292,-0.848745,-9.443480,-2.504335,0.788601,2.664482,-4.301672,2014,10,8,14,36,40,0,2014-10-08 14:36:40:803
-7.104644,-6.737732,-6.805219,6.378303,-10.081684,8.096292,-0.848745,-9.443480,-2.504335,0.788601,2.664482,-4.301672,2014,10,8,14,36,40,0,2014-10-08 14:36:40:805
-7.104644,-6.737732,-6.805219,-15.958252,-3.755605,-9.786898,-0.848745,-9.443480,-2.504335,0.788601,2.664482,-4.301672,2014,10,8,14,36,40,0,2014-10-08 14:36:40:807
-15.958252,-3.755605,-9.786898,-15.958252,-3.755605,-9.786898,8.853608,-2.982128,2.981679,0.788601,2.664482,-4.301672,2014,10,8,14,36,40,0,2014-10-08 14:36:40:813
-15.958252,-3.755605,-9.786898,-15.958252,-3.755605,-9.786898,8.853608,-2.982128,2.981679,-1.462303,-0.294822,0.348208,2014,10,8,14,36,41,0,2014-10-08 14:36:41:6
18.295443,-19.525164,-12.872127,-15.958252,-3.755605,-9.786898,8.853608,-2.982128,2.981679,-1.462303,-0.294822,0.348208,2014,10,8,14,36,41,0,2014-10-08 14:36:41:8
18.295443,-19.525164,-12.872127,-15.958252,-3.755605,-9.786898,8.853608,-2.982128,2.981679,-0.220248,-7.523694,2.017482,2014,10,8,14,36,41,0,2014-10-08 14:36:41:204
15.331420,-7.676260,1.600823,-15.958252,-3.755605,-9.786898,8.853608,-2.982128,2.981679,-0.220248,-7.523694,2.017482,2014,10,8,14,36,41,0,2014-10-08 14:36:41:205
15.331420,-7.676260,1.600823,7.686435,-1.604863,0.673220,8.853608,-2.982128,2.981679,-0.220248,-7.523694,2.017482,2014,10,8,14,36,41,0,2014-10-08 14:36:41:207
7.686435,-1.604863,0.673220,7.686435,-1.604863,0.673220,7.644985,-6.071396,0.927604,-0.220248,-7.523694,2.017482,2014,10,8,14,36,41,0,2014-10-08 14:36:41:209
7.686435,-1.604863,0.673220,7.686435,-1.604863,0.673220,7.644985,-6.071396,0.927604,2.468480,-2.380597,5.746973,2014,10,8,14,36,41,0,2014-10-08 14:36:41:403
3.475333,2.561347,1.028609,7.686435,-1.604863,0.673220,7.644985,-6.071396,0.927604,2.468480,-2.380597,5.746973,2014,10,8,14,36,41,0,2014-10-08 14:36:41:405
3.475333,2.561347,1.028609,5.433790,12.150723,1.645415,7.644985,-6.071396,0.927604,2.468480,-2.380597,5.746973,2014,10,8,14,36,41,0,2014-10-08 14:36:41:407
5.433790,12.150723,1.645415,5.433790,12.150723,1.645415,-1.958457,-9.589376,-0.616806,2.468480,-2.380597,5.746973,2014,10,8,14,36,41,0,2014-10-08 14:36:41:409
5.433790,12.150723,1.645415,5.433790,12.150723,1.645415,-1.958457,-9.589376,-0.616806,1.928391,3.690345,-4.153595,2014,10,8,14,36,41,0,2014-10-08 14:36:41:604
14.960319,-19.525164,0.006285,5.433790,12.150723,1.645415,-1.958457,-9.589376,-0.616806,1.928391,3.690345,-4.153595,2014,10,8,14,36,41,0,2014-10-08 14:36:41:605
14.960319,-19.525164,0.006285,20.038719,-11.442189,2.252944,-1.958457,-9.589376,-0.616806,1.928391,3.690345,-4.153595,2014,10,8,14,36,41,0,2014-10-08 14:36:41:608
20.038719,-11.442189,2.252944,20.038719,-11.442189,2.252944,-5.078401,-8.082974,-2.246659,1.928391,3.690345,-4.153595,2014,10,8,14,36,41,0,2014-10-08 14:36:41:610
20.038719,-11.442189,2.252944,20.038719,-11.442189,2.252944,-5.078401,-8.082974,-2.246659,-1.736114,5.673866,-4.433760,2014,10,8,14,36,41,0,2014-10-08 14:36:41:803
-9.565884,-8.897303,-10.463559,20.038719,-11.442189,2.252944,-5.078401,-8.082974,-2.246659,-1.736114,5.673866,-4.433760,2014,10,8,14,36,41,0,2014-10-08 14:36:41:805
-9.565884,-8.897303,-10.463559,-17.489344,-4.622006,-14.350546,-5.078401,-8.082974,-2.246659,-1.736114,5.673866,-4.433760,2014,10,8,14,36,41,0,2014-10-08 14:36:41:807
-17.489344,-4.622006,-14.350546,-17.489344,-4.622006,-14.350546,7.923461,-4.275296,3.886986,-1.736114,5.673866,-4.433760,2014,10,8,14,36,41,0,2014-10-08 14:36:41:809
-17.489344,-4.622006,-14.350546,-17.489344,-4.622006,-14.350546,7.923461,-4.275296,3.886986,0.020507,1.147557,-2.902975,2014,10,8,14,36,42,0,2014-10-08 14:36:42:3
13.839832,-19.525164,-14.375685,-17.489344,-4.622006,-14.350546,7.923461,-4.275296,3.886986,0.020507,1.147557,-2.902975,2014,10,8,14,36,42,0,2014-10-08 14:36:42:5
13.839832,-19.525164,-14.375685,-17.489344,-4.622006,-14.350546,7.923461,-4.275296,3.886986,-1.209873,-6.411559,0.504806,2014,10,8,14,36,42,0,2014-10-08 14:36:42:209
19.587713,-14.248343,-3.137302,-17.489344,-4.622006,-14.350546,7.923461,-4.275296,3.886986,-1.209873,-6.411559,0.504806,2014,10,8,14,36,42,0,2014-10-08 14:36:42:214
19.587713,-14.248343,-3.137302,12.635848,-8.828170,-7.434146,7.923461,-4.275296,3.886986,-1.209873,-6.411559,0.504806,2014,10,8,14,36,42,0,2014-10-08 14:36:42:216
12.635848,-8.828170,-7.434146,12.635848,-8.828170,-7.434146,6.951864,-5.420173,4.296844,-1.209873,-6.411559,0.504806,2014,10,8,14,36,42,0,2014-10-08 14:36:42:218
12.635848,-8.828170,-7.434146,12.635848,-8.828170,-7.434146,6.951864,-5.420173,4.296844,0.021654,-6.055785,6.120871,2014,10,8,14,36,42,0,2014-10-08 14:36:42:402
3.051560,3.349039,3.386898,12.635848,-8.828170,-7.434146,6.951864,-5.420173,4.296844,0.021654,-6.055785,6.120871,2014,10,8,14,36,42,0,2014-10-08 14:36:42:412
3.051560,3.349039,3.386898,1.780239,12.331037,7.112425,6.951864,-5.420173,4.296844,0.021654,-6.055785,6.120871,2014,10,8,14,36,42,0,2014-10-08 14:36:42:414
1.780239,12.331037,7.112425,1.780239,12.331037,7.112425,1.271321,-8.981997,-3.725528,0.021654,-6.055785,6.120871,2014,10,8,14,36,42,0,2014-10-08 14:36:42:416
1.780239,12.331037,7.112425,1.780239,12.331037,7.112425,1.271321,-8.981997,-3.725528,0.135637,2.186165,-2.154104,2014,10,8,14,36,42,0,2014-10-08 14:36:42:603
19.587713,-19.525164,-3.604171,1.780239,12.331037,7.112425,1.271321,-8.981997,-3.725528,0.135637,2.186165,-2.154104,2014,10,8,14,36,42,0,2014-10-08 14:36:42:606
19.587713,-19.525164,-3.604171,24.390631,-11.013328,-2.795530,1.271321,-8.981997,-3.725528,0.135637,2.186165,-2.154104,2014,10,8,14,36,42,0,2014-10-08 14:36:42:608
24.390631,-11.013328,-2.795530,24.390631,-11.013328,-2.795530,-4.802918,-8.511836,-0.808642,0.135637,2.186165,-2.154104,2014,10,8,14,36,42,0,2014-10-08 14:36:42:610
24.390631,-11.013328,-2.795530,24.390631,-11.013328,-2.795530,-4.802918,-8.511836,-0.808642,0.534046,2.540898,-9.277527,2014,10,8,14,36,42,0,2014-10-08 14:36:42:804
7.001993,-13.103915,-7.858668,24.390631,-11.013328,-2.795530,-4.802918,-8.511836,-0.808642,0.534046,2.540898,-9.277527,2014,10,8,14,36,42,0,2014-10-08 14:36:42:805
7.001993,-13.103915,-7.858668,-1.488146,-8.622867,-9.860370,-4.802918,-8.511836,-0.808642,0.534046,2.540898,-9.277527,2014,10,8,14,36,42,0,2014-10-08 14:36:42:808
-1.488146,-8.622867,-9.860370,-1.488146,-8.622867,-9.860370,8.490138,-4.481048,2.001702,0.534046,2.540898,-9.277527,2014,10,8,14,36,42,0,2014-10-08 14:36:42:810
-1.488146,-8.622867,-9.860370,-1.488146,-8.622867,-9.860370,8.490138,-4.481048,2.001702,-4.292678,5.195541,-1.948506,2014,10,8,14,36,43,0,2014-10-08 14:36:43:2
2.603844,-13.259538,-9.055769,-1.488146,-8.622867,-9.860370,8.490138,-4.481048,2.001702,-4.292678,5.195541,-1.948506,2014,10,8,14,36,43,0,2014-10-08 14:36:43:5
2.603844,-13.259538,-9.055769,-1.488146,-8.622867,-9.860370,8.490138,-4.481048,2.001702,-0.787958,-3.856011,2.955971,2014,10,8,14,36,43,0,2014-10-08 14:36:43:206
19.587713,-19.525164,-14.461876,-1.488146,-8.622867,-9.860370,8.490138,-4.481048,2.001702,-0.787958,-3.856011,2.955971,2014,10,8,14,36,43,0,2014-10-08 14:36:43:208
19.587713,-19.525164,-14.461876,14.216321,-17.010504,-22.271763,8.490138,-4.481048,2.001702,-0.787958,-3.856011,2.955971,2014,10,8,14,36,43,0,2014-10-08 14:36:43:210
14.216321,-17.010504,-22.271763,14.216321,-17.010504,-22.271763,5.371391,-2.514660,7.809886,-0.787958,-3.856011,2.955971,2014,10,8,14,36,43,0,2014-10-08 14:36:43:212
14.216321,-17.010504,-22.271763,14.216321,-17.010504,-22.271763,5.371391,-2.514660,7.809886,1.292503,-7.551414,5.966409,2014,10,8,14,36,43,0,2014-10-08 14:36:43:403
12.590059,4.119972,3.113959,14.216321,-17.010504,-22.271763,5.371391,-2.514660,7.809886,1.292503,-7.551414,5.966409,2014,10,8,14,36,43,0,2014-10-08 14:36:43:406
12.590059,4.119972,3.113959,6.735338,11.980735,3.432687,5.371391,-2.514660,7.809886,1.292503,-7.551414,5.966409,2014,10,8,14,36,43,0,2014-10-08 14:36:43:408
6.735338,11.980735,3.432687,6.735338,11.980735,3.432687,5.854721,-7.860763,-0.318728,1.292503,-7.551414,5.966409,2014,10,8,14,36,43,0,2014-10-08 14:36:43:409
6.735338,11.980735,3.432687,6.735338,11.980735,3.432687,5.854721,-7.860763,-0.318728,-0.455601,-1.720154,2.578868,2014,10,8,14,36,43,0,2014-10-08 14:36:43:603
19.587713,-19.462915,-2.938583,6.735338,11.980735,3.432687,5.854721,-7.860763,-0.318728,-0.455601,-1.720154,2.578868,2014,10,8,14,36,43,0,2014-10-08 14:36:43:604
19.587713,-19.462915,-2.938583,25.038712,-11.411813,-4.218733,5.854721,-7.860763,-0.318728,-0.455601,-1.720154,2.578868,2014,10,8,14,36,43,0,2014-10-08 14:36:43:606
25.038712,-11.411813,-4.218733,25.038712,-11.411813,-4.218733,-5.450999,-8.051102,1.280150,-0.455601,-1.720154,2.578868,2014,10,8,14,36,43,0,2014-10-08 14:36:43:608
25.038712,-11.411813,-4.218733,25.038712,-11.411813,-4.218733,-5.450999,-8.051102,1.280150,0.243213,8.535147,-8.606409,2014,10,8,14,36,43,0,2014-10-08 14:36:43:803
5.237466,-16.972944,-10.231321,25.038712,-11.411813,-4.218733,-5.450999,-8.051102,1.280150,0.243213,8.535147,-8.606409,2014,10,8,14,36,43,0,2014-10-08 14:36:43:805
5.237466,-16.972944,-10.231321,3.758448,-7.278373,-10.201993,-5.450999,-8.051102,1.280150,0.243213,8.535147,-8.606409,2014,10,8,14,36,43,0,2014-10-08 14:36:43:807
3.758448,-7.278373,-10.201993,3.758448,-7.278373,-10.201993,1.479018,-9.694571,-0.029329,0.243213,8.535147,-8.606409,2014,10,8,14,36,43,0,2014-10-08 14:36:43:808
3.758448,-7.278373,-10.201993,3.758448,-7.278373,-10.201993,1.479018,-9.694571,-0.029329,-1.311008,5.467185,-1.533053,2014,10,8,14,36,44,0,2014-10-08 14:36:44:1
-0.997035,-11.205313,-14.313436,3.758448,-7.278373,-10.201993,1.479018,-9.694571,-0.029329,-1.311008,5.467185,-1.533053,2014,10,8,14,36,44,0,2014-10-08 14:36:44:10
-0.997035,-11.205313,-14.313436,3.758448,-7.278373,-10.201993,1.479018,-9.694571,-0.029329,-1.030800,-4.353501,1.260066,2014,10,8,14,36,44,0,2014-10-08 14:36:44:205
19.587713,-19.525164,-12.740445,3.758448,-7.278373,-10.201993,1.479018,-9.694571,-0.029329,-1.030800,-4.353501,1.260066,2014,10,8,14,36,44,0,2014-10-08 14:36:44:207
19.587713,-19.525164,-12.740445,14.686632,-13.557467,-18.784906,1.479018,-9.694571,-0.029329,-1.030800,-4.353501,1.260066,2014,10,8,14,36,44,0,2014-10-08 14:36:44:209
14.686632,-13.557467,-18.784906,14.686632,-13.557467,-18.784906,4.901081,-5.967697,6.044461,-1.030800,-4.353501,1.260066,2014,10,8,14,36,44,0,2014-10-08 14:36:44:210
14.686632,-13.557467,-18.784906,14.686632,-13.557467,-18.784906,4.901081,-5.967697,6.044461,1.337282,-7.900832,3.828418,2014,10,8,14,36,44,0,2014-10-08 14:36:44:402
10.545411,-0.388310,0.961571,14.686632,-13.557467,-18.784906,4.901081,-5.967697,6.044461,1.337282,-7.900832,3.828418,2014,10,8,14,36,44,0,2014-10-08 14:36:44:404
10.545411,-0.388310,0.961571,5.941361,8.149115,2.406173,4.901081,-5.967697,6.044461,1.337282,-7.900832,3.828418,2014,10,8,14,36,44,0,2014-10-08 14:36:44:407
5.941361,8.149115,2.406173,5.941361,8.149115,2.406173,4.604050,-8.537424,-1.444601,1.337282,-7.900832,3.828418,2014,10,8,14,36,44,0,2014-10-08 14:36:44:408
5.941361,8.149115,2.406173,5.941361,8.149115,2.406173,4.604050,-8.537424,-1.444601,2.371654,-2.495680,3.792199,2014,10,8,14,36,44,0,2014-10-08 14:36:44:601
10.198252,-3.546262,0.454001,5.941361,8.149115,2.406173,4.604050,-8.537424,-1.444601,2.371654,-2.495680,3.792199,2014,10,8,14,36,44,0,2014-10-08 14:36:44:604
10.198252,-3.546262,0.454001,15.953164,4.271406,-0.938527,4.604050,-8.537424,-1.444601,2.371654,-2.495680,3.792199,2014,10,8,14,36,44,0,2014-10-08 14:36:44:606
15.953164,4.271406,-0.938527,15.953164,4.271406,-0.938527,-5.754913,-7.817667,1.392528,2.371654,-2.495680,3.792199,2014,10,8,14,36,44,0,2014-10-08 14:36:44:608
15.953164,4.271406,-0.938527,15.953164,4.271406,-0.938527,-5.754913,-7.817667,1.392528,-1.460102,3.792576,-5.964558,2014,10,8,14,36,44,0,2014-10-08 14:36:44:801
19.587713,-19.525164,-4.085406,15.953164,4.271406,-0.938527,-5.754913,-7.817667,1.392528,-1.460102,3.792576,-5.964558,2014,10,8,14,36,44,0,2014-10-08 14:36:44:803
19.587713,-19.525164,-4.085406,23.428761,-10.554539,-5.058350,-5.754913,-7.817667,1.392528,-1.460102,3.792576,-5.964558,2014,10,8,14,36,44,0,2014-10-08 14:36:44:805
23.428761,-10.554539,-5.058350,23.428761,-10.554539,-5.058350,-3.841048,-8.970625,0.972944,-1.460102,3.792576,-5.964558,2014,10,8,14,36,44,0,2014-10-08 14:36:44:806
23.428761,-10.554539,-5.058350,23.428761,-10.554539,-5.058350,-3.841048,-8.970625,0.972944,-0.183915,2.561130,-4.536038,2014,10,8,14,36,45,0,2014-10-08 14:36:45:3
-4.502147,-10.609157,-9.630377,23.428761,-10.554539,-5.058350,-3.841048,-8.970625,0.972944,-0.183915,2.561130,-4.536038,2014,10,8,14,36,45,0,2014-10-08 14:36:45:5
-4.502147,-10.609157,-9.630377,23.428761,-10.554539,-5.058350,-3.841048,-8.970625,0.972944,1.902938,1.126219,-2.535471,2014,10,8,14,36,45,0,2014-10-08 14:36:45:203
13.784766,-13.829358,-8.442853,23.428761,-10.554539,-5.058350,-3.841048,-8.970625,0.972944,1.902938,1.126219,-2.535471,2014,10,8,14,36,45,0,2014-10-08 14:36:45:205
13.784766,-13.829358,-8.442853,7.357532,-11.298238,-15.403545,-3.841048,-8.970625,0.972944,1.902938,1.126219,-2.535471,2014,10,8,14,36,45,0,2014-10-08 14:36:45:207
7.357532,-11.298238,-15.403545,7.357532,-11.298238,-15.403545,6.427235,-2.531120,6.960692,1.902938,1.126219,-2.535471,2014,10,8,14,36,45,0,2014-10-08 14:36:45:209
7.357532,-11.298238,-15.403545,7.357532,-11.298238,-15.403545,6.427235,-2.531120,6.960692,2.017013,-4.590018,2.952760,2014,10,8,14,36,45,0,2014-10-08 14:36:45:404
19.587713,-13.300240,-6.414964,7.357532,-11.298238,-15.403545,6.427235,-2.531120,6.960692,2.017013,-4.590018,2.952760,2014,10,8,14,36,45,0,2014-10-08 14:36:45:406
19.587713,-13.300240,-6.414964,10.824186,-10.096349,-9.432257,6.427235,-2.531120,6.960692,2.017013,-4.590018,2.952760,2014,10,8,14,36,45,0,2014-10-08 14:36:45:408
10.824186,-10.096349,-9.432257,10.824186,-10.096349,-9.432257,8.763526,-3.203891,3.017293,2.017013,-4.590018,2.952760,2014,10,8,14,36,45,0,2014-10-08 14:36:45:410
10.824186,-10.096349,-9.432257,10.824186,-10.096349,-9.432257,8.763526,-3.203891,3.017293,-1.006207,-5.517863,8.117162,2014,10,8,14,36,45,0,2014-10-08 14:36:45:602
3.195212,3.717746,3.566463,10.824186,-10.096349,-9.432257,8.763526,-3.203891,3.017293,-1.006207,-5.517863,8.117162,2014,10,8,14,36,45,0,2014-10-08 14:36:45:605
3.195212,3.717746,3.566463,2.175880,13.315652,5.302558,8.763526,-3.203891,3.017293,-1.006207,-5.517863,8.117162,2014,10,8,14,36,45,0,2014-10-08 14:36:45:606
2.175880,13.315652,5.302558,2.175880,13.315652,5.302558,1.019331,-9.597906,-1.736096,-1.006207,-5.517863,8.117162,2014,10,8,14,36,45,0,2014-10-08 14:36:45:608
2.175880,13.315652,5.302558,2.175880,13.315652,5.302558,1.019331,-9.597906,-1.736096,0.523512,1.264675,-1.616159,2014,10,8,14,36,45,0,2014-10-08 14:36:45:803
19.587713,-19.525164,-4.387075,2.175880,13.315652,5.302558,1.019331,-9.597906,-1.736096,0.523512,1.264675,-1.616159,2014,10,8,14,36,45,0,2014-10-08 14:36:45:805
19.587713,-19.525164,-4.387075,24.634689,-11.627141,-7.271789,1.019331,-9.597906,-1.736096,0.523512,1.264675,-1.616159,2014,10,8,14,36,45,0,2014-10-08 14:36:45:807
24.634689,-11.627141,-7.271789,24.634689,-11.627141,-7.271789,-5.046977,-7.898023,2.884714,0.523512,1.264675,-1.616159,2014,10,8,14,36,45,0,2014-10-08 14:36:45:809
24.634689,-11.627141,-7.271789,24.634689,-11.627141,-7.271789,-5.046977,-7.898023,2.884714,0.655599,0.641497,-10.156384,2014,10,8,14,36,46,0,2014-10-08 14:36:46:2
1.873613,-17.401506,1.181838,24.634689,-11.627141,-7.271789,-5.046977,-7.898023,2.884714,0.655599,0.641497,-10.156384,2014,10,8,14,36,46,0,2014-10-08 14:36:46:4
1.873613,-17.401506,1.181838,-5.318869,-11.886164,-2.562394,-5.046977,-7.898023,2.884714,0.655599,0.641497,-10.156384,2014,10,8,14,36,46,0,2014-10-08 14:36:46:6
-5.318869,-11.886164,-2.562394,-5.318869,-11.886164,-2.562394,-5.046977,-7.898023,2.884714,-4.520520,1.786657,-2.045460,2014,10,8,14,36,46,0,2014-10-08 14:36:46:202
10.418518,-11.921179,-2.751836,-5.318869,-11.886164,-2.562394,-5.046977,-7.898023,2.884714,-4.520520,1.786657,-2.045460,2014,10,8,14,36,46,0,2014-10-08 14:36:46:205
10.418518,-11.921179,-2.751836,2.222567,-14.249391,-7.606977,-5.046977,-7.898023,2.884714,-4.520520,1.786657,-2.045460,2014,10,8,14,36,46,0,2014-10-08 14:36:46:206
2.222567,-14.249391,-7.606977,2.222567,-14.249391,-7.606977,8.195951,2.328212,4.855142,-4.520520,1.786657,-2.045460,2014,10,8,14,36,46,0,2014-10-08 14:36:46:208
2.222567,-14.249391,-7.606977,2.222567,-14.249391,-7.606977,8.195951,2.328212,4.855142,-0.036822,-1.360134,3.604702,2014,10,8,14,36,46,0,2014-10-08 14:36:46:403
19.587713,-18.806904,-3.642479,2.222567,-14.249391,-7.606977,8.195951,2.328212,4.855142,-0.036822,-1.360134,3.604702,2014,10,8,14,36,46,0,2014-10-08 14:36:46:405
19.587713,-18.806904,-3.642479,10.930429,-18.508675,-8.239346,8.195951,2.328212,4.855142,-0.036822,-1.360134,3.604702,2014,10,8,14,36,46,0,2014-10-08 14:36:46:407
10.930429,-18.508675,-8.239346,10.930429,-18.508675,-8.239346,8.657284,-0.298228,4.596867,-0.036822,-1.360134,3.604702,2014,10,8,14,36,46,0,2014-10-08 14:36:46:409
10.930429,-18.508675,-8.239346,10.930429,-18.508675,-8.239346,8.657284,-0.298228,4.596867,-0.666394,-2.866418,8.178948,2014,10,8,14,36,46,0,2014-10-08 14:36:46:602
7.866299,6.040122,-0.565929,10.930429,-18.508675,-8.239346,8.657284,-0.298228,4.596867,-0.666394,-2.866418,8.178948,2014,10,8,14,36,46,0,2014-10-08 14:36:46:604
7.866299,6.040122,-0.565929,2.513912,14.068628,-2.316689,8.657284,-0.298228,4.596867,-0.666394,-2.866418,8.178948,2014,10,8,14,36,46,0,2014-10-08 14:36:46:606
2.513912,14.068628,-2.316689,2.513912,14.068628,-2.316689,5.352387,-8.028506,1.750760,-0.666394,-2.866418,8.178948,2014,10,8,14,36,46,0,2014-10-08 14:36:46:608
2.513912,14.068628,-2.316689,2.513912,14.068628,-2.316689,5.352387,-8.028506,1.750760,2.084119,-0.867982,2.584179,2014,10,8,14,36,46,0,2014-10-08 14:36:46:802
14.823850,-0.699556,-2.126949,2.513912,14.068628,-2.316689,5.352387,-8.028506,1.750760,2.084119,-0.867982,2.584179,2014,10,8,14,36,46,0,2014-10-08 14:36:46:804
14.823850,-0.699556,-2.126949,20.661362,6.033987,-6.220285,5.352387,-8.028506,1.750760,2.084119,-0.867982,2.584179,2014,10,8,14,36,46,0,2014-10-08 14:36:46:806
20.661362,6.033987,-6.220285,20.661362,6.033987,-6.220285,-5.837512,-6.733542,4.093337,2.084119,-0.867982,2.584179,2014,10,8,14,36,46,0,2014-10-08 14:36:46:808
20.661362,6.033987,-6.220285,20.661362,6.033987,-6.220285,-5.837512,-6.733542,4.093337,-2.894927,2.810376,-7.330237,2014,10,8,14,36,47,0,2014-10-08 14:36:47:3
19.587713,-11.042507,-1.284190,20.661362,6.033987,-6.220285,-5.837512,-6.733542,4.093337,-2.894927,2.810376,-7.330237,2014,10,8,14,36,47,0,2014-10-08 14:36:47:5
19.587713,-11.042507,-1.284190,20.661362,6.033987,-6.220285,-5.837512,-6.733542,4.093337,-1.038171,1.721676,-5.687599,2014,10,8,14,36,47,0,2014-10-08 14:36:47:213
2.098667,-19.204340,-1.016039,20.661362,6.033987,-6.220285,-5.837512,-6.733542,4.093337,-1.038171,1.721676,-5.687599,2014,10,8,14,36,47,0,2014-10-08 14:36:47:215
2.098667,-19.204340,-1.016039,-6.344186,-17.418415,-5.673959,-5.837512,-6.733542,4.093337,-1.038171,1.721676,-5.687599,2014,10,8,14,36,47,0,2014-10-08 14:36:47:217
-6.344186,-17.418415,-5.673959,-6.344186,-17.418415,-5.673959,8.442853,-1.785925,4.657919,-1.038171,1.721676,-5.687599,2014,10,8,14,36,47,0,2014-10-08 14:36:47:219
-6.344186,-17.418415,-5.673959,-6.344186,-17.418415,-5.673959,8.442853,-1.785925,4.657919,1.334173,-0.194735,-0.227054,2014,10,8,14,36,47,0,2014-10-08 14:36:47:402
19.587713,-13.161376,-4.358345,-6.344186,-17.418415,-5.673959,8.442853,-1.785925,4.657919,1.334173,-0.194735,-0.227054,2014,10,8,14,36,47,0,2014-10-08 14:36:47:404
19.587713,-13.161376,-4.358345,12.622381,-16.916531,-10.150667,8.442853,-1.785925,4.657919,1.334173,-0.194735,-0.227054,2014,10,8,14,36,47,0,2014-10-08 14:36:47:406
12.622381,-16.916531,-10.150667,12.622381,-16.916531,-10.150667,6.965331,3.755156,5.792322,1.334173,-0.194735,-0.227054,2014,10,8,14,36,47,0,2014-10-08 14:36:47:408
12.622381,-16.916531,-10.150667,12.622381,-16.916531,-10.150667,6.965331,3.755156,5.792322,1.893437,-1.370787,6.718471,2014,10,8,14,36,47,0,2014-10-08 14:36:47:608
13.334656,-2.227057,-1.432630,12.622381,-16.916531,-10.150667,6.965331,3.755156,5.792322,1.893437,-1.370787,6.718471,2014,10,8,14,36,47,0,2014-10-08 14:36:47:610
13.334656,-2.227057,-1.432630,4.574272,-0.482881,-5.480178,6.965331,3.755156,5.792322,1.893437,-1.370787,6.718471,2014,10,8,14,36,47,0,2014-10-08 14:36:47:615
4.574272,-0.482881,-5.480178,4.574272,-0.482881,-5.480178,8.760384,-1.744176,4.047548,1.893437,-1.370787,6.718471,2014,10,8,14,36,47,0,2014-10-08 14:36:47:619
4.574272,-0.482881,-5.480178,4.574272,-0.482881,-5.480178,8.760384,-1.744176,4.047548,2.052221,-2.988942,7.016737,2014,10,8,14,36,47,0,2014-10-08 14:36:47:800
2.247108,2.106449,0.176273,4.574272,-0.482881,-5.480178,8.760384,-1.744176,4.047548,2.052221,-2.988942,7.016737,2014,10,8,14,36,47,0,2014-10-08 14:36:47:803
2.247108,2.106449,0.176273,3.670910,11.276690,-2.993949,8.760384,-1.744176,4.047548,2.052221,-2.988942,7.016737,2014,10,8,14,36,47,0,2014-10-08 14:36:47:804
3.670910,11.276690,-2.993949,3.670910,11.276690,-2.993949,-1.423802,-9.170241,3.170222,2.052221,-2.988942,7.016737,2014,10,8,14,36,47,0,2014-10-08 14:36:47:806
3.670910,11.276690,-2.993949,3.670910,11.276690,-2.993949,-1.423802,-9.170241,3.170222,-2.610442,1.054802,-2.607927,2014,10,8,14,36,48,0,2014-10-08 14:36:48:2
19.587713,-13.616274,6.176143,3.670910,11.276690,-2.993949,-1.423802,-9.170241,3.170222,-2.610442,1.054802,-2.607927,2014,10,8,14,36,48,0,2014-10-08 14:36:48:4
19.587713,-13.616274,6.176143,3.670910,11.276690,-2.993949,-1.423802,-9.170241,3.170222,5.193685,-2.230474,-9.743069,2014,10,8,14,36,48,0,2014-10-08 14:36:48:207
8.517522,-15.859641,6.719626,3.670910,11.276690,-2.993949,-1.423802,-9.170241,3.170222,5.193685,-2.230474,-9.743069,2014,10,8,14,36,48,0,2014-10-08 14:36:48:210
8.517522,-15.859641,6.719626,3.951780,-10.945093,-0.433799,-1.423802,-9.170241,3.170222,5.193685,-2.230474,-9.743069,2014,10,8,14,36,48,0,2014-10-08 14:36:48:213
3.951780,-10.945093,-0.433799,3.951780,-10.945093,-0.433799,4.565742,-4.914548,7.153426,5.193685,-2.230474,-9.743069,2014,10,8,14,36,48,0,2014-10-08 14:36:48:215
3.951780,-10.945093,-0.433799,3.951780,-10.945093,-0.433799,4.565742,-4.914548,7.153426,0.162441,-1.249365,-3.342959,2014,10,8,14,36,48,0,2014-10-08 14:36:48:401
15.575629,-12.699295,3.147477,3.951780,-10.945093,-0.433799,4.565742,-4.914548,7.153426,0.162441,-1.249365,-3.342959,2014,10,8,14,36,48,0,2014-10-08 14:36:48:404
15.575629,-12.699295,3.147477,8.690204,-17.222391,-2.172289,4.565742,-4.914548,7.153426,0.162441,-1.249365,-3.342959,2014,10,8,14,36,48,0,2014-10-08 14:36:48:405
8.690204,-17.222391,-2.172289,8.690204,-17.222391,-2.172289,6.885425,4.523096,5.319767,0.162441,-1.249365,-3.342959,2014,10,8,14,36,48,0,2014-10-08 14:36:48:407
8.690204,-17.222391,-2.172289,8.690204,-17.222391,-2.172289,6.885425,4.523096,5.319767,0.725966,1.154937,5.272900,2014,10,8,14,36,48,0,2014-10-08 14:36:48:604
19.587713,-13.678523,-3.913023,8.690204,-17.222391,-2.172289,6.885425,4.523096,5.319767,0.725966,1.154937,5.272900,2014,10,8,14,36,48,0,2014-10-08 14:36:48:605
19.587713,-13.678523,-3.913023,11.769596,-17.767820,-8.193557,6.885425,4.523096,5.319767,0.725966,1.154937,5.272900,2014,10,8,14,36,48,0,2014-10-08 14:36:48:607
11.769596,-17.767820,-8.193557,11.769596,-17.767820,-8.193557,7.818116,4.089296,4.280533,0.725966,1.154937,5.272900,2014,10,8,14,36,48,0,2014-10-08 14:36:48:609
11.769596,-17.767820,-8.193557,11.769596,-17.767820,-8.193557,7.818116,4.089296,4.280533,-0.022915,-3.475768,10.683377,2014,10,8,14,36,48,0,2014-10-08 14:36:48:801
2.381183,4.440795,4.397251,11.769596,-17.767820,-8.193557,7.818116,4.089296,4.280533,-0.022915,-3.475768,10.683377,2014,10,8,14,36,48,0,2014-10-08 14:36:48:805
2.381183,4.440795,4.397251,-0.992097,12.986749,0.968305,7.818116,4.089296,4.280533,-0.022915,-3.475768,10.683377,2014,10,8,14,36,48,0,2014-10-08 14:36:48:807
-0.992097,12.986749,0.968305,-0.992097,12.986749,0.968305,3.373281,-8.545954,3.428946,-0.022915,-3.475768,10.683377,2014,10,8,14,36,48,0,2014-10-08 14:36:48:809
-0.992097,12.986749,0.968305,-0.992097,12.986749,0.968305,3.373281,-8.545954,3.428946,0.059165,0.551981,0.853111,2014,10,8,14,36,49,0,2014-10-08 14:36:49:2
19.587713,-5.763292,-3.448548,-0.992097,12.986749,0.968305,3.373281,-8.545954,3.428946,0.059165,0.551981,0.853111,2014,10,8,14,36,49,0,2014-10-08 14:36:49:4
19.587713,-5.763292,-3.448548,-0.992097,12.986749,0.968305,3.373281,-8.545954,3.428946,-0.889986,5.877237,-9.367036,2014,10,8,14,36,49,0,2014-10-08 14:36:49:202
19.334526,-7.750480,-3.834015,-0.992097,12.986749,0.968305,3.373281,-8.545954,3.428946,-0.889986,5.877237,-9.367036,2014,10,8,14,36,49,0,2014-10-08 14:36:49:204
19.334526,-7.750480,-3.834015,18.148798,1.777695,-5.828535,3.373281,-8.545954,3.428946,-0.889986,5.877237,-9.367036,2014,10,8,14,36,49,0,2014-10-08 14:36:49:206
18.148798,1.777695,-5.828535,18.148798,1.777695,-5.828535,1.185728,-9.528174,1.994520,-0.889986,5.877237,-9.367036,2014,10,8,14,36,49,0,2014-10-08 14:36:49:207
18.148798,1.777695,-5.828535,18.148798,1.777695,-5.828535,1.185728,-9.528174,1.994520,-1.073211,1.517110,-3.161870,2014,10,8,14,36,49,0,2014-10-08 14:36:49:401
4.950161,-13.111097,-5.222652,18.148798,1.777695,-5.828535,1.185728,-9.528174,1.994520,-1.073211,1.517110,-3.161870,2014,10,8,14,36,49,0,2014-10-08 14:36:49:405
4.950161,-13.111097,-5.222652,-2.845509,-11.703157,-11.003153,1.185728,-9.528174,1.994520,-1.073211,1.517110,-3.161870,2014,10,8,14,36,49,0,2014-10-08 14:36:49:407
-2.845509,-11.703157,-11.003153,-2.845509,-11.703157,-11.003153,7.795671,-1.407940,5.780501,-1.073211,1.517110,-3.161870,2014,10,8,14,36,49,0,2014-10-08 14:36:49:409
-2.845509,-11.703157,-11.003153,-2.845509,-11.703157,-11.003153,7.795671,-1.407940,5.780501,0.579003,-0.936190,1.424094,2014,10,8,14,36,49,0,2014-10-08 14:36:49:603
19.587713,-9.103204,-6.379051,-2.845509,-11.703157,-11.003153,7.795671,-1.407940,5.780501,0.579003,-0.936190,1.424094,2014,10,8,14,36,49,0,2014-10-08 14:36:49:606
19.587713,-9.103204,-6.379051,13.161077,-9.912744,-13.741820,7.795671,-1.407940,5.780501,0.579003,-0.936190,1.424094,2014,10,8,14,36,49,0,2014-10-08 14:36:49:607
13.161077,-9.912744,-13.741820,13.161077,-9.912744,-13.741820,6.426636,0.809539,7.362769,0.579003,-0.936190,1.424094,2014,10,8,14,36,49,0,2014-10-08 14:36:49:609
13.161077,-9.912744,-13.741820,13.161077,-9.912744,-13.741820,6.426636,0.809539,7.362769,1.595265,-2.868580,6.096344,2014,10,8,14,36,49,0,2014-10-08 14:36:49:802
17.888428,-8.665065,-5.356727,13.161077,-9.912744,-13.741820,6.426636,0.809539,7.362769,1.595265,-2.868580,6.096344,2014,10,8,14,36,49,0,2014-10-08 14:36:49:804
17.888428,-8.665065,-5.356727,9.559599,-5.552303,-9.493159,6.426636,0.809539,7.362769,1.595265,-2.868580,6.096344,2014,10,8,14,36,49,0,2014-10-08 14:36:49:806
9.559599,-5.552303,-9.493159,9.559599,-5.552303,-9.493159,8.328829,-3.112761,4.136432,1.595265,-2.868580,6.096344,2014,10,8,14,36,49,0,2014-10-08 14:36:49:807
9.559599,-5.552303,-9.493159,9.559599,-5.552303,-9.493159,8.328829,-3.112761,4.136432,0.734532,-7.807146,6.495819,2014,10,8,14,36,50,0,2014-10-08 14:36:50:0
2.809745,6.550087,5.546467,9.559599,-5.552303,-9.493159,8.328829,-3.112761,4.136432,0.734532,-7.807146,6.495819,2014,10,8,14,36,50,0,2014-10-08 14:36:50:10
2.809745,6.550087,5.546467,9.559599,-5.552303,-9.493159,8.328829,-3.112761,4.136432,0.985966,0.475275,-1.235875,2014,10,8,14,36,50,0,2014-10-08 14:36:50:200
19.587713,-5.064186,-8.210615,9.559599,-5.552303,-9.493159,8.328829,-3.112761,4.136432,0.985966,0.475275,-1.235875,2014,10,8,14,36,50,0,2014-10-08 14:36:50:202
19.587713,-5.064186,-8.210615,25.059811,0.438737,-14.206145,8.328829,-3.112761,4.136432,0.985966,0.475275,-1.235875,2014,10,8,14,36,50,0,2014-10-08 14:36:50:204
25.059811,0.438737,-14.206145,25.059811,0.438737,-14.206145,-5.472097,-5.502923,5.995530,0.985966,0.475275,-1.235875,2014,10,8,14,36,50,0,2014-10-08 14:36:50:206
25.059811,0.438737,-14.206145,25.059811,0.438737,-14.206145,-5.472097,-5.502923,5.995530,-2.330202,5.676961,-10.535633,2014,10,8,14,36,50,0,2014-10-08 14:36:50:406
19.587713,-9.989058,-3.247435,25.059811,0.438737,-14.206145,-5.472097,-5.502923,5.995530,-2.330202,5.676961,-10.535633,2014,10,8,14,36,50,0,2014-10-08 14:36:50:408
19.587713,-9.989058,-3.247435,16.708834,-1.140987,-6.344934,-5.472097,-5.502923,5.995530,-2.330202,5.676961,-10.535633,2014,10,8,14,36,50,0,2014-10-08 14:36:50:410
16.708834,-1.140987,-6.344934,16.708834,-1.140987,-6.344934,2.878878,-8.848072,3.097498,-2.330202,5.676961,-10.535633,2014,10,8,14,36,50,0,2014-10-08 14:36:50:415
16.708834,-1.140987,-6.344934,16.708834,-1.140987,-6.344934,2.878878,-8.848072,3.097498,-3.130215,0.141847,-3.915015,2014,10,8,14,36,50,0,2014-10-08 14:36:50:601
8.029105,-12.706477,-0.328903,16.708834,-1.140987,-6.344934,2.878878,-8.848072,3.097498,-3.130215,0.141847,-3.915015,2014,10,8,14,36,50,0,2014-10-08 14:36:50:604
8.029105,-12.706477,-0.328903,0.750732,-17.358112,-4.971859,2.878878,-8.848072,3.097498,-3.130215,0.141847,-3.915015,2014,10,8,14,36,50,0,2014-10-08 14:36:50:606
0.750732,-17.358112,-4.971859,0.750732,-17.358112,-4.971859,7.278373,4.651635,4.642956,-3.130215,0.141847,-3.915015,2014,10,8,14,36,50,0,2014-10-08 14:36:50:608
0.750732,-17.358112,-4.971859,0.750732,-17.358112,-4.971859,7.278373,4.651635,4.642956,2.712852,-0.517579,1.686135,2014,10,8,14,36,50,0,2014-10-08 14:36:50:803
19.587713,-7.228544,-1.909077,0.750732,-17.358112,-4.971859,7.278373,4.651635,4.642956,2.712852,-0.517579,1.686135,2014,10,8,14,36,50,0,2014-10-08 14:36:50:805
19.587713,-7.228544,-1.909077,14.717607,-13.381043,-7.791032,7.278373,4.651635,4.642956,2.712852,-0.517579,1.686135,2014,10,8,14,36,50,0,2014-10-08 14:36:50:807
14.717607,-13.381043,-7.791032,14.717607,-13.381043,-7.791032,4.870106,6.152500,5.881955,2.712852,-0.517579,1.686135,2014,10,8,14,36,50,0,2014-10-08 14:36:50:809
14.717607,-13.381043,-7.791032,14.717607,-13.381043,-7.791032,4.870106,6.152500,5.881955,2.054518,0.219584,7.227640,2014,10,8,14,36,51,0,2014-10-08 14:36:51:2
19.587713,-12.749573,-2.773383,14.717607,-13.381043,-7.791032,4.870106,6.152500,5.881955,2.054518,0.219584,7.227640,2014,10,8,14,36,51,0,2014-10-08 14:36:51:4
19.587713,-12.749573,-2.773383,10.794558,-13.292608,-7.080702,4.870106,6.152500,5.881955,2.054518,0.219584,7.227640,2014,10,8,14,36,51,0,2014-10-08 14:36:51:6
10.794558,-13.292608,-7.080702,10.794558,-13.292608,-7.080702,4.870106,6.152500,5.881955,-0.687472,-3.980754,9.010893,2014,10,8,14,36,51,0,2014-10-08 14:36:51:201
2.488922,7.878869,4.859332,10.794558,-13.292608,-7.080702,4.870106,6.152500,5.881955,-0.687472,-3.980754,9.010893,2014,10,8,14,36,51,0,2014-10-08 14:36:51:204
2.488922,7.878869,4.859332,4.945074,16.897528,1.892467,4.870106,6.152500,5.881955,-0.687472,-3.980754,9.010893,2014,10,8,14,36,51,0,2014-10-08 14:36:51:206
4.945074,16.897528,1.892467,4.945074,16.897528,1.892467,-2.456152,-9.018659,2.966865,-0.687472,-3.980754,9.010893,2014,10,8,14,36,51,0,2014-10-08 14:36:51:208
4.945074,16.897528,1.892467,4.945074,16.897528,1.892467,-2.456152,-9.018659,2.966865,-0.771661,-0.470698,0.543110,2014,10,8,14,36,51,0,2014-10-08 14:36:51:401
19.587713,-18.469320,-0.575506,4.945074,16.897528,1.892467,-2.456152,-9.018659,2.966865,-0.771661,-0.470698,0.543110,2014,10,8,14,36,51,0,2014-10-08 14:36:51:403
19.587713,-18.469320,-0.575506,27.113436,-16.446520,-6.528839,-2.456152,-9.018659,2.966865,-0.771661,-0.470698,0.543110,2014,10,8,14,36,51,0,2014-10-08 14:36:51:405
27.113436,-16.446520,-6.528839,27.113436,-16.446520,-6.528839,-7.525724,-2.022801,5.953332,-0.771661,-0.470698,0.543110,2014,10,8,14,36,51,0,2014-10-08 14:36:51:407
27.113436,-16.446520,-6.528839,27.113436,-16.446520,-6.528839,-7.525724,-2.022801,5.953332,-1.686723,4.801296,-12.233671,2014,10,8,14,36,51,0,2014-10-08 14:36:51:601
10.904541,-12.570008,-4.032733,27.113436,-16.446520,-6.528839,-7.525724,-2.022801,5.953332,-1.686723,4.801296,-12.233671,2014,10,8,14,36,51,0,2014-10-08 14:36:51:603
10.904541,-12.570008,-4.032733,12.088175,-4.180276,-8.970625,-7.525724,-2.022801,5.953332,-1.686723,4.801296,-12.233671,2014,10,8,14,36,51,0,2014-10-08 14:36:51:605
12.088175,-4.180276,-8.970625,12.088175,-4.180276,-8.970625,-1.183633,-8.389731,4.937891,-1.686723,4.801296,-12.233671,2014,10,8,14,36,51,0,2014-10-08 14:36:51:607
12.088175,-4.180276,-8.970625,12.088175,-4.180276,-8.970625,-1.183633,-8.389731,4.937891,-5.097699,2.324556,-5.478830,2014,10,8,14,36,51,0,2014-10-08 14:36:51:806
5.735460,-12.680141,-1.396717,12.088175,-4.180276,-8.970625,-1.183633,-8.389731,4.937891,-5.097699,2.324556,-5.478830,2014,10,8,14,36,51,0,2014-10-08 14:36:51:808
5.735460,-12.680141,-1.396717,-0.407014,-9.307309,-8.256853,-1.183633,-8.389731,4.937891,-5.097699,2.324556,-5.478830,2014,10,8,14,36,51,0,2014-10-08 14:36:51:822
-0.407014,-9.307309,-8.256853,-0.407014,-9.307309,-8.256853,6.142474,-3.372832,6.860136,-5.097699,2.324556,-5.478830,2014,10,8,14,36,51,0,2014-10-08 14:36:51:824
-0.407014,-9.307309,-8.256853,-0.407014,-9.307309,-8.256853,6.142474,-3.372832,6.860136,0.630228,-1.085355,2.554329,2014,10,8,14,36,52,0,2014-10-08 14:36:52:1
19.587713,-19.525164,-2.067094,-0.407014,-9.307309,-8.256853,6.142474,-3.372832,6.860136,0.630228,-1.085355,2.554329,2014,10,8,14,36,52,0,2014-10-08 14:36:52:3
19.587713,-19.525164,-2.067094,-0.407014,-9.307309,-8.256853,6.142474,-3.372832,6.860136,-2.715768,-1.603074,8.313148,2014,10,8,14,36,52,0,2014-10-08 14:36:52:201
10.748919,1.706617,-1.150115,-0.407014,-9.307309,-8.256853,6.142474,-3.372832,6.860136,-2.715768,-1.603074,8.313148,2014,10,8,14,36,52,0,2014-10-08 14:36:52:203
10.748919,1.706617,-1.150115,6.351967,9.050831,-5.935525,6.142474,-3.372832,6.860136,-2.715768,-1.603074,8.313148,2014,10,8,14,36,52,0,2014-10-08 14:36:52:205
6.351967,9.050831,-5.935525,6.351967,9.050831,-5.935525,4.396951,-7.344213,4.785411,-2.715768,-1.603074,8.313148,2014,10,8,14,36,52,0,2014-10-08 14:36:52:207
6.351967,9.050831,-5.935525,6.351967,9.050831,-5.935525,4.396951,-7.344213,4.785411,2.460352,-3.048638,5.778885,2014,10,8,14,36,52,0,2014-10-08 14:36:52:401
2.761861,4.471920,1.576881,6.351967,9.050831,-5.935525,4.396951,-7.344213,4.785411,2.460352,-3.048638,5.778885,2014,10,8,14,36,52,0,2014-10-08 14:36:52:404
2.761861,4.471920,1.576881,6.905177,9.504232,-5.749825,4.396951,-7.344213,4.785411,2.460352,-3.048638,5.778885,2014,10,8,14,36,52,0,2014-10-08 14:36:52:406
6.905177,9.504232,-5.749825,6.905177,9.504232,-5.749825,-4.143316,-5.032313,7.326706,2.460352,-3.048638,5.778885,2014,10,8,14,36,52,0,2014-10-08 14:36:52:408
6.905177,9.504232,-5.749825,6.905177,9.504232,-5.749825,-4.143316,-5.032313,7.326706,-1.171075,0.842755,-7.481534,2014,10,8,14,36,52,0,2014-10-08 14:36:52:601
19.587713,-19.525164,-0.089483,6.905177,9.504232,-5.749825,-4.143316,-5.032313,7.326706,-1.171075,0.842755,-7.481534,2014,10,8,14,36,52,0,2014-10-08 14:36:52:603
19.587713,-19.525164,-0.089483,24.387339,-16.923265,-8.235904,-4.143316,-5.032313,7.326706,-1.171075,0.842755,-7.481534,2014,10,8,14,36,52,0,2014-10-08 14:36:52:605
24.387339,-16.923265,-8.235904,24.387339,-16.923265,-8.235904,-4.799626,-2.601899,8.146420,-1.171075,0.842755,-7.481534,2014,10,8,14,36,52,0,2014-10-08 14:36:52:607
24.387339,-16.923265,-8.235904,24.387339,-16.923265,-8.235904,-4.799626,-2.601899,8.146420,-3.751146,0.972717,-6.694304,2014,10,8,14,36,52,0,2014-10-08 14:36:52:801
0.489764,-19.525164,0.717363,24.387339,-16.923265,-8.235904,-4.799626,-2.601899,8.146420,-3.751146,0.972717,-6.694304,2014,10,8,14,36,52,0,2014-10-08 14:36:52:804
0.489764,-19.525164,0.717363,-5.000739,-14.999674,-6.031144,-4.799626,-2.601899,8.146420,-3.751146,0.972717,-6.694304,2014,10,8,14,36,52,0,2014-10-08 14:36:52:806
-5.000739,-14.999674,-6.031144,-5.000739,-14.999674,-6.031144,5.490503,-4.525490,6.748507,-3.751146,0.972717,-6.694304,2014,10,8,14,36,52,0,2014-10-08 14:36:52:807
-5.000739,-14.999674,-6.031144,-5.000739,-14.999674,-6.031144,5.490503,-4.525490,6.748507,0.107242,-0.938367,-1.885700,2014,10,8,14,36,53,0,2014-10-08 14:36:53:4
19.377621,-14.219613,-6.213851,-5.000739,-14.999674,-6.031144,5.490503,-4.525490,6.748507,0.107242,-0.938367,-1.885700,2014,10,8,14,36,53,0,2014-10-08 14:36:53:6
19.377621,-14.219613,-6.213851,-5.000739,-14.999674,-6.031144,5.490503,-4.525490,6.748507,2.647941,-1.940794,4.805221,2014,10,8,14,36,53,0,2014-10-08 14:36:53:201
17.076794,-10.824635,-5.593753,-5.000739,-14.999674,-6.031144,5.490503,-4.525490,6.748507,2.647941,-1.940794,4.805221,2014,10,8,14,36,53,0,2014-10-08 14:36:53:203
17.076794,-10.824635,-5.593753,9.882666,-6.445789,-10.617686,5.490503,-4.525490,6.748507,2.647941,-1.940794,4.805221,2014,10,8,14,36,53,0,2014-10-08 14:36:53:205
9.882666,-6.445789,-10.617686,9.882666,-6.445789,-10.617686,7.194127,-4.378845,5.023933,2.647941,-1.940794,4.805221,2014,10,8,14,36,53,0,2014-10-08 14:36:53:207
9.882666,-6.445789,-10.617686,9.882666,-6.445789,-10.617686,7.194127,-4.378845,5.023933,-0.164357,-2.589540,7.435359,2014,10,8,14,36,53,0,2014-10-08 14:36:53:402
0.722001,6.329820,3.171419,9.882666,-6.445789,-10.617686,7.194127,-4.378845,5.023933,-0.164357,-2.589540,7.435359,2014,10,8,14,36,53,0,2014-10-08 14:36:53:405
0.722001,6.329820,3.171419,0.213383,15.106814,-1.173159,7.194127,-4.378845,5.023933,-0.164357,-2.589540,7.435359,2014,10,8,14,36,53,0,2014-10-08 14:36:53:407
0.213383,15.106814,-1.173159,0.213383,15.106814,-1.173159,0.508618,-8.776994,4.344578,-0.164357,-2.589540,7.435359,2014,10,8,14,36,53,0,2014-10-08 14:36:53:408
0.213383,15.106814,-1.173159,0.213383,15.106814,-1.173159,0.508618,-8.776994,4.344578,0.020999,-0.644367,0.877591,2014,10,8,14,36,53,0,2014-10-08 14:36:53:602
19.587713,-2.162413,-3.774160,0.213383,15.106814,-1.173159,0.508618,-8.776994,4.344578,0.020999,-0.644367,0.877591,2014,10,8,14,36,53,0,2014-10-08 14:36:53:604
19.587713,-2.162413,-3.774160,24.304440,2.924218,-10.705972,0.508618,-8.776994,4.344578,0.020999,-0.644367,0.877591,2014,10,8,14,36,53,0,2014-10-08 14:36:53:606
24.304440,2.924218,-10.705972,24.304440,2.924218,-10.705972,-4.716727,-5.086631,6.931812,0.020999,-0.644367,0.877591,2014,10,8,14,36,53,0,2014-10-08 14:36:53:608
24.304440,2.924218,-10.705972,24.304440,2.924218,-10.705972,-4.716727,-5.086631,6.931812,-3.748961,4.638276,-8.869580,2014,10,8,14,36,53,0,2014-10-08 14:36:53:802
18.491766,-15.648952,-13.647847,24.304440,2.924218,-10.705972,-4.716727,-5.086631,6.931812,-3.748961,4.638276,-8.869580,2014,10,8,14,36,53,0,2014-10-08 14:36:53:804
18.491766,-15.648952,-13.647847,18.773384,-6.705411,-17.660978,-4.716727,-5.086631,6.931812,-3.748961,4.638276,-8.869580,2014,10,8,14,36,53,0,2014-10-08 14:36:53:806
18.773384,-6.705411,-17.660978,18.773384,-6.705411,-17.660978,-0.281618,-8.943541,4.013131,-3.748961,4.638276,-8.869580,2014,10,8,14,36,53,0,2014-10-08 14:36:53:808
18.773384,-6.705411,-17.660978,18.773384,-6.705411,-17.660978,-0.281618,-8.943541,4.013131,-3.187567,4.031075,-3.273746,2014,10,8,14,36,54,0,2014-10-08 14:36:54:1
4.277391,-12.888436,-6.572981,18.773384,-6.705411,-17.660978,-0.281618,-8.943541,4.013131,-3.187567,4.031075,-3.273746,2014,10,8,14,36,54,0,2014-10-08 14:36:54:6
4.277391,-12.888436,-6.572981,18.773384,-6.705411,-17.660978,-0.281618,-8.943541,4.013131,3.809090,-1.996191,0.934049,2014,10,8,14,36,54,0,2014-10-08 14:36:54:203
19.587713,-10.884490,-7.659949,18.773384,-6.705411,-17.660978,-0.281618,-8.943541,4.013131,3.809090,-1.996191,0.934049,2014,10,8,14,36,54,0,2014-10-08 14:36:54:205
19.587713,-10.884490,-7.659949,11.908161,-8.691550,-13.350667,-0.281618,-8.943541,4.013131,3.809090,-1.996191,0.934049,2014,10,8,14,36,54,0,2014-10-08 14:36:54:207
11.908161,-8.691550,-13.350667,11.908161,-8.691550,-13.350667,7.679552,-2.192939,5.690718,3.809090,-1.996191,0.934049,2014,10,8,14,36,54,0,2014-10-08 14:36:54:209
11.908161,-8.691550,-13.350667,11.908161,-8.691550,-13.350667,7.679552,-2.192939,5.690718,0.514211,-1.753306,5.809766,2014,10,8,14,36,54,0,2014-10-08 14:36:54:401
15.573235,0.284461,-1.334468,11.908161,-8.691550,-13.350667,7.679552,-2.192939,5.690718,0.514211,-1.753306,5.809766,2014,10,8,14,36,54,0,2014-10-08 14:36:54:403
15.573235,0.284461,-1.334468,8.492533,5.214122,-5.996129,7.679552,-2.192939,5.690718,0.514211,-1.753306,5.809766,2014,10,8,14,36,54,0,2014-10-08 14:36:54:405
8.492533,5.214122,-5.996129,8.492533,5.214122,-5.996129,7.080702,-4.929661,4.661660,0.514211,-1.753306,5.809766,2014,10,8,14,36,54,0,2014-10-08 14:36:54:407
8.492533,5.214122,-5.996129,8.492533,5.214122,-5.996129,7.080702,-4.929661,4.661660,1.969362,-4.167195,6.214566,2014,10,8,14,36,54,0,2014-10-08 14:36:54:599
5.967697,0.396989,2.235286,8.492533,5.214122,-5.996129,7.080702,-4.929661,4.661660,1.969362,-4.167195,6.214566,2014,10,8,14,36,54,0,2014-10-08 14:36:54:601
5.967697,0.396989,2.235286,8.644714,8.831612,-1.991078,7.080702,-4.929661,4.661660,1.969362,-4.167195,6.214566,2014,10,8,14,36,54,0,2014-10-08 14:36:54:604
8.644714,8.831612,-1.991078,8.644714,8.831612,-1.991078,-2.677017,-8.434623,4.226365,1.969362,-4.167195,6.214566,2014,10,8,14,36,54,0,2014-10-08 14:36:54:606
8.644714,8.831612,-1.991078,8.644714,8.831612,-1.991078,-2.677017,-8.434623,4.226365,0.003949,2.401226,-5.125174,2014,10,8,14,36,54,0,2014-10-08 14:36:54:802
19.587713,-19.525164,-7.070975,8.644714,8.831612,-1.991078,-2.677017,-8.434623,4.226365,0.003949,2.401226,-5.125174,2014,10,8,14,36,54,0,2014-10-08 14:36:54:804
19.587713,-19.525164,-7.070975,22.725164,-12.728175,-13.405734,-2.677017,-8.434623,4.226365,0.003949,2.401226,-5.125174,2014,10,8,14,36,54,0,2014-10-08 14:36:54:806
22.725164,-12.728175,-13.405734,22.725164,-12.728175,-13.405734,-3.137452,-6.796989,6.334758,0.003949,2.401226,-5.125174,2014,10,8,14,36,54,0,2014-10-08 14:36:54:807
22.725164,-12.728175,-13.405734,22.725164,-12.728175,-13.405734,-3.137452,-6.796989,6.334758,0.848774,2.119974,-10.138316,2014,10,8,14,36,54,0,2014-10-08 14:36:54:999
2.072331,-17.061531,1.617583,22.725164,-12.728175,-13.405734,-3.137452,-6.796989,6.334758,0.848774,2.119974,-10.138316,2014,10,8,14,36,55,0,2014-10-08 14:36:55:1
2.072331,-17.061531,1.617583,22.725164,-12.728175,-13.405734,-3.137452,-6.796989,6.334758,0.393906,0.361223,-1.632180,2014,10,8,14,36,55,0,2014-10-08 14:36:55:201
19.587713,-11.336994,-6.956054,22.725164,-12.728175,-13.405734,-3.137452,-6.796989,6.334758,0.393906,0.361223,-1.632180,2014,10,8,14,36,55,0,2014-10-08 14:36:55:203
19.587713,-11.336994,-6.956054,12.126482,-11.224616,-13.318944,-3.137452,-6.796989,6.334758,0.393906,0.361223,-1.632180,2014,10,8,14,36,55,0,2014-10-08 14:36:55:205
12.126482,-11.224616,-13.318944,12.126482,-11.224616,-13.318944,7.461230,-0.112378,6.362890,0.393906,0.361223,-1.632180,2014,10,8,14,36,55,0,2014-10-08 14:36:55:207
12.126482,-11.224616,-13.318944,12.126482,-11.224616,-13.318944,7.461230,-0.112378,6.362890,1.654114,-1.979163,4.954350,2014,10,8,14,36,55,0,2014-10-08 14:36:55:406
19.587713,-13.271509,-6.601712,12.126482,-11.224616,-13.318944,7.461230,-0.112378,6.362890,1.654114,-1.979163,4.954350,2014,10,8,14,36,55,0,2014-10-08 14:36:55:408
19.587713,-13.271509,-6.601712,12.986300,-8.768166,-12.285995,7.461230,-0.112378,6.362890,1.654114,-1.979163,4.954350,2014,10,8,14,36,55,0,2014-10-08 14:36:55:410
12.986300,-8.768166,-12.285995,12.986300,-8.768166,-12.285995,6.601413,-4.503344,5.684284,1.654114,-1.979163,4.954350,2014,10,8,14,36,55,0,2014-10-08 14:36:55:412
12.986300,-8.768166,-12.285995,12.986300,-8.768166,-12.285995,6.601413,-4.503344,5.684284,0.632531,-4.400511,8.561336,2014,10,8,14,36,55,0,2014-10-08 14:36:55:600
2.840870,5.209334,2.996643,12.986300,-8.768166,-12.285995,6.601413,-4.503344,5.684284,0.632531,-4.400511,8.561336,2014,10,8,14,36,55,0,2014-10-08 14:36:55:602
2.840870,5.209334,2.996643,3.111864,13.600862,-2.070835,6.601413,-4.503344,5.684284,0.632531,-4.400511,8.561336,2014,10,8,14,36,55,0,2014-10-08 14:36:55:604
3.111864,13.600862,-2.070835,3.111864,13.600862,-2.070835,-0.270994,-8.391527,5.067478,0.632531,-4.400511,8.561336,2014,10,8,14,36,55,0,2014-10-08 14:36:55:606
3.111864,13.600862,-2.070835,3.111864,13.600862,-2.070835,-0.270994,-8.391527,5.067478,1.604052,0.430463,0.582504,2014,10,8,14,36,55,0,2014-10-08 14:36:55:801
19.587713,-11.504588,0.446818,3.111864,13.600862,-2.070835,-0.270994,-8.391527,5.067478,1.604052,0.430463,0.582504,2014,10,8,14,36,55,0,2014-10-08 14:36:55:803
19.587713,-11.504588,0.446818,23.675663,-8.517522,-7.951892,-0.270994,-8.391527,5.067478,1.604052,0.430463,0.582504,2014,10,8,14,36,55,0,2014-10-08 14:36:55:805
23.675663,-8.517522,-7.951892,23.675663,-8.517522,-7.951892,-4.087950,-2.987066,8.398710,1.604052,0.430463,0.582504,2014,10,8,14,36,55,0,2014-10-08 14:36:55:806
23.675663,-8.517522,-7.951892,23.675663,-8.517522,-7.951892,-4.087950,-2.987066,8.398710,3.646164,5.530950,-10.562292,2014,10,8,14,36,56,0,2014-10-08 14:36:56:6
15.977855,-15.648952,-0.051176,23.675663,-8.517522,-7.951892,-4.087950,-2.987066,8.398710,3.646164,5.530950,-10.562292,2014,10,8,14,36,56,0,2014-10-08 14:36:56:10
15.977855,-15.648952,-0.051176,18.601002,-9.096769,-6.859837,-4.087950,-2.987066,8.398710,3.646164,5.530950,-10.562292,2014,10,8,14,36,56,0,2014-10-08 14:36:56:12
18.601002,-9.096769,-6.859837,18.601002,-9.096769,-6.859837,-4.087950,-2.987066,8.398710,-5.165687,0.421936,-3.503852,2014,10,8,14,36,56,0,2014-10-08 14:36:56:201
10.155156,-12.538883,-1.854010,18.601002,-9.096769,-6.859837,-4.087950,-2.987066,8.398710,-5.165687,0.421936,-3.503852,2014,10,8,14,36,56,0,2014-10-08 14:36:56:203
10.155156,-12.538883,-1.854010,4.561702,-11.901278,-9.883714,-4.087950,-2.987066,8.398710,-5.165687,0.421936,-3.503852,2014,10,8,14,36,56,0,2014-10-08 14:36:56:205
4.561702,-11.901278,-9.883714,4.561702,-11.901278,-9.883714,5.593454,-0.637606,8.029703,-5.165687,0.421936,-3.503852,2014,10,8,14,36,56,0,2014-10-08 14:36:56:207
4.561702,-11.901278,-9.883714,4.561702,-11.901278,-9.883714,5.593454,-0.637606,8.029703,0.057304,-1.031084,3.223293,2014,10,8,14,36,56,0,2014-10-08 14:36:56:403
19.587713,-10.266786,-1.621772,4.561702,-11.901278,-9.883714,5.593454,-0.637606,8.029703,0.057304,-1.031084,3.223293,2014,10,8,14,36,56,0,2014-10-08 14:36:56:405
19.587713,-10.266786,-1.621772,13.722218,-10.110714,-9.479243,5.593454,-0.637606,8.029703,0.057304,-1.031084,3.223293,2014,10,8,14,36,56,0,2014-10-08 14:36:56:407
13.722218,-10.110714,-9.479243,13.722218,-10.110714,-9.479243,5.865495,-0.156072,7.857471,0.057304,-1.031084,3.223293,2014,10,8,14,36,56,0,2014-10-08 14:36:56:409
13.722218,-10.110714,-9.479243,13.722218,-10.110714,-9.479243,5.865495,-0.156072,7.857471,2.143092,-1.443342,6.867563,2014,10,8,14,36,56,0,2014-10-08 14:36:56:600
15.424794,-2.502390,-2.943372,13.722218,-10.110714,-9.479243,5.865495,-0.156072,7.857471,2.143092,-1.443342,6.867563,2014,10,8,14,36,56,0,2014-10-08 14:36:56:614
15.424794,-2.502390,-2.943372,10.488698,2.535609,-9.756821,5.865495,-0.156072,7.857471,2.143092,-1.443342,6.867563,2014,10,8,14,36,56,0,2014-10-08 14:36:56:616
10.488698,2.535609,-9.756821,10.488698,2.535609,-9.756821,4.936096,-5.037999,6.813449,2.143092,-1.443342,6.867563,2014,10,8,14,36,56,0,2014-10-08 14:36:56:621
10.488698,2.535609,-9.756821,10.488698,2.535609,-9.756821,4.936096,-5.037999,6.813449,0.618747,-3.913705,7.474758,2014,10,8,14,36,56,0,2014-10-08 14:36:56:801
-4.035277,7.991396,10.423456,10.488698,2.535609,-9.756821,4.936096,-5.037999,6.813449,0.618747,-3.913705,7.474758,2014,10,8,14,36,56,0,2014-10-08 14:36:56:803
-4.035277,7.991396,10.423456,-0.840664,14.985309,4.336498,4.936096,-5.037999,6.813449,0.618747,-3.913705,7.474758,2014,10,8,14,36,56,0,2014-10-08 14:36:56:805
-0.840664,14.985309,4.336498,-0.840664,14.985309,4.336498,-3.194613,-6.993912,6.086958,0.618747,-3.913705,7.474758,2014,10,8,14,36,56,0,2014-10-08 14:36:56:806
-0.840664,14.985309,4.336498,-0.840664,14.985309,4.336498,-3.194613,-6.993912,6.086958,-1.154918,0.463467,-0.296346,2014,10,8,14,36,57,0,2014-10-08 14:36:57:1
19.587713,-8.188619,-10.430040,-0.840664,14.985309,4.336498,-3.194613,-6.993912,6.086958,-1.154918,0.463467,-0.296346,2014,10,8,14,36,57,0,2014-10-08 14:36:57:3
19.587713,-8.188619,-10.430040,-0.840664,14.985309,4.336498,-3.194613,-6.993912,6.086958,-1.588481,9.207157,-10.295983,2014,10,8,14,36,57,0,2014-10-08 14:36:57:206
8.912565,-7.458387,-7.461230,-0.840664,14.985309,4.336498,-3.194613,-6.993912,6.086958,-1.588481,9.207157,-10.295983,2014,10,8,14,36,57,0,2014-10-08 14:36:57:210
8.912565,-7.458387,-7.461230,7.277475,1.754800,-10.396072,-3.194613,-6.993912,6.086958,-1.588481,9.207157,-10.295983,2014,10,8,14,36,57,0,2014-10-08 14:36:57:212
7.277475,1.754800,-10.396072,7.277475,1.754800,-10.396072,1.635090,-9.213187,2.934842,-1.588481,9.207157,-10.295983,2014,10,8,14,36,57,0,2014-10-08 14:36:57:214
7.277475,1.754800,-10.396072,7.277475,1.754800,-10.396072,1.635090,-9.213187,2.934842,-2.489684,1.592644,-0.963203,2014,10,8,14,36,57,0,2014-10-08 14:36:57:400
12.858210,-8.430433,-6.491579,7.277475,1.754800,-10.396072,1.635090,-9.213187,2.934842,-2.489684,1.592644,-0.963203,2014,10,8,14,36,57,0,2014-10-08 14:36:57:402
12.858210,-8.430433,-6.491579,7.071125,-2.585887,-11.831995,1.635090,-9.213187,2.934842,-2.489684,1.592644,-0.963203,2014,10,8,14,36,57,0,2014-10-08 14:36:57:404
7.071125,-2.585887,-11.831995,7.071125,-2.585887,-11.831995,5.787085,-5.844546,5.340416,-2.489684,1.592644,-0.963203,2014,10,8,14,36,57,0,2014-10-08 14:36:57:406
7.071125,-2.585887,-11.831995,7.071125,-2.585887,-11.831995,5.787085,-5.844546,5.340416,1.278157,-3.402381,2.336986,2014,10,8,14,36,57,0,2014-10-08 14:36:57:602
19.587713,-11.638663,-6.798037,7.071125,-2.585887,-11.831995,5.787085,-5.844546,5.340416,1.278157,-3.402381,2.336986,2014,10,8,14,36,57,0,2014-10-08 14:36:57:604
19.587713,-11.638663,-6.798037,13.272556,-5.584476,-11.229255,5.787085,-5.844546,5.340416,1.278157,-3.402381,2.336986,2014,10,8,14,36,57,0,2014-10-08 14:36:57:606
13.272556,-5.584476,-11.229255,13.272556,-5.584476,-11.229255,6.315156,-6.054188,4.431219,1.278157,-3.402381,2.336986,2014,10,8,14,36,57,0,2014-10-08 14:36:57:608
13.272556,-5.584476,-11.229255,13.272556,-5.584476,-11.229255,6.315156,-6.054188,4.431219,2.708807,-7.226680,5.370859,2014,10,8,14,36,57,0,2014-10-08 14:36:57:800
8.823980,1.608455,-1.437419,13.272556,-5.584476,-11.229255,6.315156,-6.054188,4.431219,2.708807,-7.226680,5.370859,2014,10,8,14,36,57,0,2014-10-08 14:36:57:803
8.823980,1.608455,-1.437419,6.994361,10.982203,-3.663428,6.315156,-6.054188,4.431219,2.708807,-7.226680,5.370859,2014,10,8,14,36,57,0,2014-10-08 14:36:57:806
6.994361,10.982203,-3.663428,6.994361,10.982203,-3.663428,1.829619,-9.373749,2.226009,2.708807,-7.226680,5.370859,2014,10,8,14,36,57,0,2014-10-08 14:36:57:808
6.994361,10.982203,-3.663428,6.994361,10.982203,-3.663428,1.829619,-9.373749,2.226009,3.014522,-1.151472,5.354882,2014,10,8,14,36,58,0,2014-10-08 14:36:58:1
1.150564,3.866187,1.208174,6.994361,10.982203,-3.663428,1.829619,-9.373749,2.226009,3.014522,-1.151472,5.354882,2014,10,8,14,36,58,0,2014-10-08 14:36:58:3
1.150564,3.866187,1.208174,6.994361,10.982203,-3.663428,1.829619,-9.373749,2.226009,0.939386,3.019038,-5.055947,2014,10,8,14,36,58,0,2014-10-08 14:36:58:200
19.587713,-12.435932,-13.858538,6.994361,10.982203,-3.663428,1.829619,-9.373749,2.226009,0.939386,3.019038,-5.055947,2014,10,8,14,36,58,0,2014-10-08 14:36:58:202
19.587713,-12.435932,-13.858538,27.535564,-12.073360,-19.591753,1.829619,-9.373749,2.226009,0.939386,3.019038,-5.055947,2014,10,8,14,36,58,0,2014-10-08 14:36:58:204
27.535564,-12.073360,-19.591753,27.535564,-12.073360,-19.591753,-7.947852,-0.362572,5.733215,0.939386,3.019038,-5.055947,2014,10,8,14,36,58,0,2014-10-08 14:36:58:206
27.535564,-12.073360,-19.591753,27.535564,-12.073360,-19.591753,-7.947852,-0.362572,5.733215,-6.378980,5.311487,-11.522102,2014,10,8,14,36,58,0,2014-10-08 14:36:58:400
6.571036,-10.635493,-4.308067,27.535564,-12.073360,-19.591753,-7.947852,-0.362572,5.733215,-6.378980,5.311487,-11.522102,2014,10,8,14,36,58,0,2014-10-08 14:36:58:403
6.571036,-10.635493,-4.308067,4.163816,-1.167024,-5.159804,-7.947852,-0.362572,5.733215,-6.378980,5.311487,-11.522102,2014,10,8,14,36,58,0,2014-10-08 14:36:58:406
4.163816,-1.167024,-5.159804,4.163816,-1.167024,-5.159804,2.407220,-9.468470,0.851737,-6.378980,5.311487,-11.522102,2014,10,8,14,36,58,0,2014-10-08 14:36:58:408
4.163816,-1.167024,-5.159804,4.163816,-1.167024,-5.159804,2.407220,-9.468470,0.851737,1.849165,1.050416,-1.904900,2014,10,8,14,36,58,0,2014-10-08 14:36:58:600
19.587713,-9.005041,-2.624943,4.163816,-1.167024,-5.159804,2.407220,-9.468470,0.851737,1.849165,1.050416,-1.904900,2014,10,8,14,36,58,0,2014-10-08 14:36:58:602
19.587713,-9.005041,-2.624943,10.872219,-4.741866,-4.051289,2.407220,-9.468470,0.851737,1.849165,1.050416,-1.904900,2014,10,8,14,36,58,0,2014-10-08 14:36:58:604
10.872219,-4.741866,-4.051289,10.872219,-4.741866,-4.051289,8.715493,-4.263175,1.426346,1.849165,1.050416,-1.904900,2014,10,8,14,36,58,0,2014-10-08 14:36:58:606
10.872219,-4.741866,-4.051289,10.872219,-4.741866,-4.051289,8.715493,-4.263175,1.426346,3.638810,-4.393085,5.546625,2014,10,8,14,36,58,0,2014-10-08 14:36:58:805
18.546833,-8.471134,-10.264840,10.872219,-4.741866,-4.051289,8.715493,-4.263175,1.426346,3.638810,-4.393085,5.546625,2014,10,8,14,36,58,0,2014-10-08 14:36:58:807
18.546833,-8.471134,-10.264840,11.860426,-1.300201,-10.067169,8.715493,-4.263175,1.426346,3.638810,-4.393085,5.546625,2014,10,8,14,36,58,0,2014-10-08 14:36:58:809
11.860426,-1.300201,-10.067169,11.860426,-1.300201,-10.067169,6.686407,-7.170933,-0.197671,3.638810,-4.393085,5.546625,2014,10,8,14,36,58,0,2014-10-08 14:36:58:811
11.860426,-1.300201,-10.067169,11.860426,-1.300201,-10.067169,6.686407,-7.170933,-0.197671,0.422776,-7.290605,7.035864,2014,10,8,14,36,59,0,2014-10-08 14:36:59:0
0.257526,4.201375,1.428441,11.860426,-1.300201,-10.067169,6.686407,-7.170933,-0.197671,0.422776,-7.290605,7.035864,2014,10,8,14,36,59,0,2014-10-08 14:36:59:11
0.257526,4.201375,1.428441,11.860426,-1.300201,-10.067169,6.686407,-7.170933,-0.197671,1.565886,0.030933,2.203816,2014,10,8,14,36,59,0,2014-10-08 14:36:59:200
4.725107,0.332345,1.253664,11.860426,-1.300201,-10.067169,6.686407,-7.170933,-0.197671,1.565886,0.030933,2.203816,2014,10,8,14,36,59,0,2014-10-08 14:36:59:202
4.725107,0.332345,1.253664,9.130737,-4.726603,-5.899463,6.686407,-7.170933,-0.197671,1.565886,0.030933,2.203816,2014,10,8,14,36,59,0,2014-10-08 14:36:59:204
9.130737,-4.726603,-5.899463,9.130737,-4.726603,-5.899463,-4.405631,5.058948,7.153127,1.565886,0.030933,2.203816,2014,10,8,14,36,59,0,2014-10-08 14:36:59:206
9.130737,-4.726603,-5.899463,9.130737,-4.726603,-5.899463,-4.405631,5.058948,7.153127,0.019122,3.157485,-8.135641,2014,10,8,14,36,59,0,2014-10-08 14:36:59:400
19.587713,-13.230807,-7.772477,9.130737,-4.726603,-5.899463,-4.405631,5.058948,7.153127,0.019122,3.157485,-8.135641,2014,10,8,14,36,59,0,2014-10-08 14:36:59:402
19.587713,-13.230807,-7.772477,27.888708,-14.611065,-12.808231,-4.405631,5.058948,7.153127,0.019122,3.157485,-8.135641,2014,10,8,14,36,59,0,2014-10-08 14:36:59:404
27.888708,-14.611065,-12.808231,27.888708,-14.611065,-12.808231,-8.300997,1.380257,5.035754,0.019122,3.157485,-8.135641,2014,10,8,14,36,59,0,2014-10-08 14:36:59:406
27.888708,-14.611065,-12.808231,27.888708,-14.611065,-12.808231,-8.300997,1.380257,5.035754,-2.872006,0.682875,-9.162556,2014,10,8,14,36,59,0,2014-10-08 14:36:59:600
2.072331,-11.497405,-4.475661,27.888708,-14.611065,-12.808231,-8.300997,1.380257,5.035754,-2.872006,0.682875,-9.162556,2014,10,8,14,36,59,0,2014-10-08 14:36:59:602
2.072331,-11.497405,-4.475661,-1.765125,-2.484134,-4.927866,-8.300997,1.380257,5.035754,-2.872006,0.682875,-9.162556,2014,10,8,14,36,59,0,2014-10-08 14:36:59:605
-1.765125,-2.484134,-4.927866,-1.765125,-2.484134,-4.927866,3.837456,-9.013271,0.452205,-2.872006,0.682875,-9.162556,2014,10,8,14,36,59,0,2014-10-08 14:36:59:607
-1.765125,-2.484134,-4.927866,-1.765125,-2.484134,-4.927866,3.837456,-9.013271,0.452205,-0.203561,0.690345,-0.592499,2014,10,8,14,36,59,0,2014-10-08 14:36:59:802
19.587713,-11.317841,-8.529044,-1.765125,-2.484134,-4.927866,3.837456,-9.013271,0.452205,-0.203561,0.690345,-0.592499,2014,10,8,14,36,59,0,2014-10-08 14:36:59:804
19.587713,-11.317841,-8.529044,11.256639,-6.478560,-6.700173,3.837456,-9.013271,0.452205,-0.203561,0.690345,-0.592499,2014,10,8,14,36,59,0,2014-10-08 14:36:59:806
11.256639,-6.478560,-6.700173,11.256639,-6.478560,-6.700173,8.331074,-4.839280,-1.828871,-0.203561,0.690345,-0.592499,2014,10,8,14,36,59,0,2014-10-08 14:36:59:807
11.256639,-6.478560,-6.700173,11.256639,-6.478560,-6.700173,8.331074,-4.839280,-1.828871,0.879813,-4.641304,5.521053,2014,10,8,14,37,0,0,2014-10-08 14:37:00:13
12.309937,-6.117634,0.006285,11.256639,-6.478560,-6.700173,8.331074,-4.839280,-1.828871,0.879813,-4.641304,5.521053,2014,10,8,14,37,0,0,2014-10-08 14:37:00:15
12.309937,-6.117634,0.006285,9.562741,2.133084,4.539556,8.331074,-4.839280,-1.828871,0.879813,-4.641304,5.521053,2014,10,8,14,37,0,0,2014-10-08 14:37:00:17
9.562741,2.133084,4.539556,9.562741,2.133084,4.539556,8.331074,-4.839280,-1.828871,2.287027,-6.241331,6.479792,2014,10,8,14,37,0,0,2014-10-08 14:37:00:200
-3.805434,10.244340,4.914398,9.562741,2.133084,4.539556,8.331074,-4.839280,-1.828871,2.287027,-6.241331,6.479792,2014,10,8,14,37,0,0,2014-10-08 14:37:00:202
-3.805434,10.244340,4.914398,5.335778,13.569886,3.668665,8.331074,-4.839280,-1.828871,2.287027,-6.241331,6.479792,2014,10,8,14,37,0,0,2014-10-08 14:37:00:205
5.335778,13.569886,3.668665,5.335778,13.569886,3.668665,-9.141212,-3.325546,1.245733,2.287027,-6.241331,6.479792,2014,10,8,14,37,0,0,2014-10-08 14:37:00:207
5.335778,13.569886,3.668665,5.335778,13.569886,3.668665,-9.141212,-3.325546,1.245733,5.291127,-2.841023,2.664008,2014,10,8,14,37,0,0,2014-10-08 14:37:00:400
19.587713,1.050606,1.270423,5.335778,13.569886,3.668665,-9.141212,-3.325546,1.245733,5.291127,-2.841023,2.664008,2014,10,8,14,37,0,0,2014-10-08 14:37:00:402
19.587713,1.050606,1.270423,25.068489,-4.090494,-5.030367,-9.141212,-3.325546,1.245733,5.291127,-2.841023,2.664008,2014,10,8,14,37,0,0,2014-10-08 14:37:00:404
25.068489,-4.090494,-5.030367,25.068489,-4.090494,-5.030367,-5.480777,5.141099,6.300791,5.291127,-2.841023,2.664008,2014,10,8,14,37,0,0,2014-10-08 14:37:00:406
25.068489,-4.090494,-5.030367,25.068489,-4.090494,-5.030367,-5.480777,5.141099,6.300791,-3.509023,0.673285,-11.219583,2014,10,8,14,37,0,0,2014-10-08 14:37:00:600
19.587713,-9.567678,-7.937676,25.068489,-4.090494,-5.030367,-5.480777,5.141099,6.300791,-3.509023,0.673285,-11.219583,2014,10,8,14,37,0,0,2014-10-08 14:37:00:602
19.587713,-9.567678,-7.937676,25.817724,-6.470629,-14.848989,-5.480777,5.141099,6.300791,-3.509023,0.673285,-11.219583,2014,10,8,14,37,0,0,2014-10-08 14:37:00:604
25.817724,-6.470629,-14.848989,25.817724,-6.470629,-14.848989,-6.230012,-3.097049,6.911312,-3.509023,0.673285,-11.219583,2014,10,8,14,37,0,0,2014-10-08 14:37:00:606
25.817724,-6.470629,-14.848989,25.817724,-6.470629,-14.848989,-6.230012,-3.097049,6.911312,-1.326296,0.588064,-7.259995,2014,10,8,14,37,0,0,2014-10-08 14:37:00:806
7.907001,-10.482264,-1.458967,25.817724,-6.470629,-14.848989,-6.230012,-3.097049,6.911312,-1.326296,0.588064,-7.259995,2014,10,8,14,37,0,0,2014-10-08 14:37:00:808
7.907001,-10.482264,-1.458967,0.745794,-4.851850,-5.090222,-6.230012,-3.097049,6.911312,-1.326296,0.588064,-7.259995,2014,10,8,14,37,0,0,2014-10-08 14:37:00:809
0.745794,-4.851850,-5.090222,0.745794,-4.851850,-5.090222,7.161207,-5.630414,3.631256,-1.326296,0.588064,-7.259995,2014,10,8,14,37,0,0,2014-10-08 14:37:00:811
0.745794,-4.851850,-5.090222,0.745794,-4.851850,-5.090222,7.161207,-5.630414,3.631256,-1.740684,0.947058,0.845602,2014,10,8,14,37,1,0,2014-10-08 14:37:01:2
19.587713,-12.143840,-8.387786,0.745794,-4.851850,-5.090222,7.161207,-5.630414,3.631256,-1.740684,0.947058,0.845602,2014,10,8,14,37,1,0,2014-10-08 14:37:01:4
19.587713,-12.143840,-8.387786,0.745794,-4.851850,-5.090222,7.161207,-5.630414,3.631256,-2.902887,-3.727323,6.220926,2014,10,8,14,37,1,0,2014-10-08 14:37:01:200
13.478308,-2.145654,-0.977732,0.745794,-4.851850,-5.090222,7.161207,-5.630414,3.631256,-2.902887,-3.727323,6.220926,2014,10,8,14,37,1,0,2014-10-08 14:37:01:202
13.478308,-2.145654,-0.977732,12.461820,7.547272,0.111031,7.161207,-5.630414,3.631256,-2.902887,-3.727323,6.220926,2014,10,8,14,37,1,0,2014-10-08 14:37:01:204
12.461820,7.547272,0.111031,12.461820,7.547272,0.111031,1.016488,-9.692925,-1.088763,-2.902887,-3.727323,6.220926,2014,10,8,14,37,1,0,2014-10-08 14:37:01:214
12.461820,7.547272,0.111031,12.461820,7.547272,0.111031,1.016488,-9.692925,-1.088763,7.915938,-2.964593,7.417218,2014,10,8,14,37,1,0,2014-10-08 14:37:01:405
-3.463063,10.663325,-1.518822,12.461820,7.547272,0.111031,1.016488,-9.692925,-1.088763,7.915938,-2.964593,7.417218,2014,10,8,14,37,1,0,2014-10-08 14:37:01:407
-3.463063,10.663325,-1.518822,5.219210,12.792369,-5.550657,1.016488,-9.692925,-1.088763,7.915938,-2.964593,7.417218,2014,10,8,14,37,1,0,2014-10-08 14:37:01:409
5.219210,12.792369,-5.550657,5.219210,12.792369,-5.550657,-8.682273,-2.129044,4.031836,7.915938,-2.964593,7.417218,2014,10,8,14,37,1,0,2014-10-08 14:37:01:411
5.219210,12.792369,-5.550657,5.219210,12.792369,-5.550657,-8.682273,-2.129044,4.031836,4.387783,1.345466,-1.212489,2014,10,8,14,37,1,0,2014-10-08 14:37:01:600
19.587713,5.465514,7.030872,5.219210,12.792369,-5.550657,-8.682273,-2.129044,4.031836,4.387783,1.345466,-1.212489,2014,10,8,14,37,1,0,2014-10-08 14:37:01:602
19.587713,5.465514,7.030872,25.291899,-2.488623,7.634062,-8.682273,-2.129044,4.031836,4.387783,1.345466,-1.212489,2014,10,8,14,37,1,0,2014-10-08 14:37:01:604
25.291899,-2.488623,7.634062,25.291899,-2.488623,7.634062,-5.704185,7.954136,-0.603189,4.387783,1.345466,-1.212489,2014,10,8,14,37,1,0,2014-10-08 14:37:01:607
25.291899,-2.488623,7.634062,25.291899,-2.488623,7.634062,-5.704185,7.954136,-0.603189,-0.677550,1.894078,-12.410548,2014,10,8,14,37,1,0,2014-10-08 14:37:01:800
13.200581,-10.307487,-4.583400,25.291899,-2.488623,7.634062,-5.704185,7.954136,-0.603189,-0.677550,1.894078,-12.410548,2014,10,8,14,37,1,0,2014-10-08 14:37:01:802
13.200581,-10.307487,-4.583400,19.889980,-3.199851,-5.534945,-5.704185,7.954136,-0.603189,-0.677550,1.894078,-12.410548,2014,10,8,14,37,1,0,2014-10-08 14:37:01:804
19.889980,-3.199851,-5.534945,19.889980,-3.199851,-5.534945,-6.689400,-7.107636,0.951546,-0.677550,1.894078,-12.410548,2014,10,8,14,37,1,0,2014-10-08 14:37:01:806
19.889980,-3.199851,-5.534945,19.889980,-3.199851,-5.534945,-6.689400,-7.107636,0.951546,-2.620592,0.426143,-2.370431,2014,10,8,14,37,2,0,2014-10-08 14:37:02:5
7.792079,-12.754361,-0.304961,19.889980,-3.199851,-5.534945,-6.689400,-7.107636,0.951546,-2.620592,0.426143,-2.370431,2014,10,8,14,37,2,0,2014-10-08 14:37:02:14
7.792079,-12.754361,-0.304961,19.889980,-3.199851,-5.534945,-6.689400,-7.107636,0.951546,-3.132941,-1.683094,2.373186,2014,10,8,14,37,2,0,2014-10-08 14:37:02:200
19.265093,-17.480516,-2.914641,19.889980,-3.199851,-5.534945,-6.689400,-7.107636,0.951546,-3.132941,-1.683094,2.373186,2014,10,8,14,37,2,0,2014-10-08 14:37:02:202
19.265093,-17.480516,-2.914641,10.798747,-15.645210,1.681178,-6.689400,-7.107636,0.951546,-3.132941,-1.683094,2.373186,2014,10,8,14,37,2,0,2014-10-08 14:37:02:204
10.798747,-15.645210,1.681178,10.798747,-15.645210,1.681178,8.466346,-1.835305,-4.595820,-3.132941,-1.683094,2.373186,2014,10,8,14,37,2,0,2014-10-08 14:37:02:205
10.798747,-15.645210,1.681178,10.798747,-15.645210,1.681178,8.466346,-1.835305,-4.595820,-1.857820,-2.258336,7.213748,2014,10,8,14,37,2,0,2014-10-08 14:37:02:400
6.621315,2.870199,-3.834015,10.798747,-15.645210,1.681178,8.466346,-1.835305,-4.595820,-1.857820,-2.258336,7.213748,2014,10,8,14,37,2,0,2014-10-08 14:37:02:402
6.621315,2.870199,-3.834015,5.623830,9.019406,3.740042,8.466346,-1.835305,-4.595820,-1.857820,-2.258336,7.213748,2014,10,8,14,37,2,0,2014-10-08 14:37:02:404
5.623830,9.019406,3.740042,5.623830,9.019406,3.740042,0.997484,-6.149208,-7.574057,-1.857820,-2.258336,7.213748,2014,10,8,14,37,2,0,2014-10-08 14:37:02:406
5.623830,9.019406,3.740042,5.623830,9.019406,3.740042,0.997484,-6.149208,-7.574057,7.201189,-0.573088,6.335970,2014,10,8,14,37,2,0,2014-10-08 14:37:02:605
2.390760,5.812673,2.328660,5.623830,9.019406,3.740042,0.997484,-6.149208,-7.574057,7.201189,-0.573088,6.335970,2014,10,8,14,37,2,0,2014-10-08 14:37:02:607
2.390760,5.812673,2.328660,11.322928,6.247669,6.353463,0.997484,-6.149208,-7.574057,7.201189,-0.573088,6.335970,2014,10,8,14,37,2,0,2014-10-08 14:37:02:608
11.322928,6.247669,6.353463,11.322928,6.247669,6.353463,-8.932168,-0.434997,-4.024803,7.201189,-0.573088,6.335970,2014,10,8,14,37,2,0,2014-10-08 14:37:02:618
11.322928,6.247669,6.353463,11.322928,6.247669,6.353463,-8.932168,-0.434997,-4.024803,-2.111358,1.218688,-5.478878,2014,10,8,14,37,2,0,2014-10-08 14:37:02:796
19.587713,-17.746271,-3.913023,11.322928,6.247669,6.353463,-8.932168,-0.434997,-4.024803,-2.111358,1.218688,-5.478878,2014,10,8,14,37,2,0,2014-10-08 14:37:02:798
19.587713,-17.746271,-3.913023,28.057350,-17.948133,1.026364,-8.932168,-0.434997,-4.024803,-2.111358,1.218688,-5.478878,2014,10,8,14,37,2,0,2014-10-08 14:37:02:800
28.057350,-17.948133,1.026364,28.057350,-17.948133,1.026364,-8.469638,0.201861,-4.939388,-2.111358,1.218688,-5.478878,2014,10,8,14,37,2,0,2014-10-08 14:37:02:802
28.057350,-17.948133,1.026364,28.057350,-17.948133,1.026364,-8.469638,0.201861,-4.939388,-1.611749,4.808629,-10.318374,2014,10,8,14,37,2,0,2014-10-08 14:37:02:998
9.630826,-11.823017,-1.703175,28.057350,-17.948133,1.026364,-8.469638,0.201861,-4.939388,-1.611749,4.808629,-10.318374,2014,10,8,14,37,3,0,2014-10-08 14:37:03:1
9.630826,-11.823017,-1.703175,28.057350,-17.948133,1.026364,-8.469638,0.201861,-4.939388,-1.712949,-0.992801,-1.271083,2014,10,8,14,37,3,0,2014-10-08 14:37:03:201
12.654703,-17.731907,-5.059846,28.057350,-17.948133,1.026364,-8.469638,0.201861,-4.939388,-1.712949,-0.992801,-1.271083,2014,10,8,14,37,3,0,2014-10-08 14:37:03:205
12.654703,-17.731907,-5.059846,5.489007,-18.974497,1.518971,-8.469638,0.201861,-4.939388,-1.712949,-0.992801,-1.271083,2014,10,8,14,37,3,0,2014-10-08 14:37:03:207
5.489007,-18.974497,1.518971,5.489007,-18.974497,1.518971,7.165696,1.242591,-6.578817,-1.712949,-0.992801,-1.271083,2014,10,8,14,37,3,0,2014-10-08 14:37:03:209
5.489007,-18.974497,1.518971,5.489007,-18.974497,1.518971,7.165696,1.242591,-6.578817,-2.333912,-1.649030,5.446465,2014,10,8,14,37,3,0,2014-10-08 14:37:03:400
8.591743,-9.402479,-4.511574,5.489007,-18.974497,1.518971,7.165696,1.242591,-6.578817,-2.333912,-1.649030,5.446465,2014,10,8,14,37,3,0,2014-10-08 14:37:03:402
8.591743,-9.402479,-4.511574,1.411981,-11.088595,1.952023,7.165696,1.242591,-6.578817,-2.333912,-1.649030,5.446465,2014,10,8,14,37,3,0,2014-10-08 14:37:03:403
1.411981,-11.088595,1.952023,1.411981,-11.088595,1.952023,7.179762,1.686117,-6.463596,-2.333912,-1.649030,5.446465,2014,10,8,14,37,3,0,2014-10-08 14:37:03:406
1.411981,-11.088595,1.952023,1.411981,-11.088595,1.952023,7.179762,1.686117,-6.463596,-1.128033,-1.807754,6.620386,2014,10,8,14,37,3,0,2014-10-08 14:37:03:605
-1.044919,3.159897,-0.130185,1.411981,-11.088595,1.952023,7.179762,1.686117,-6.463596,-1.128033,-1.807754,6.620386,2014,10,8,14,37,3,0,2014-10-08 14:37:03:607
-1.044919,3.159897,-0.130185,-2.948160,7.669975,8.367435,7.179762,1.686117,-6.463596,-1.128033,-1.807754,6.620386,2014,10,8,14,37,3,0,2014-10-08 14:37:03:609
-2.948160,7.669975,8.367435,-2.948160,7.669975,8.367435,1.903241,-4.510077,-8.497621,-1.128033,-1.807754,6.620386,2014,10,8,14,37,3,0,2014-10-08 14:37:03:611
-2.948160,7.669975,8.367435,-2.948160,7.669975,8.367435,1.903241,-4.510077,-8.497621,-0.666773,-1.870605,4.137255,2014,10,8,14,37,3,0,2014-10-08 14:37:03:795
2.790592,7.857321,1.035792,-2.948160,7.669975,8.367435,1.903241,-4.510077,-8.497621,-0.666773,-1.870605,4.137255,2014,10,8,14,37,3,0,2014-10-08 14:37:03:797
2.790592,7.857321,1.035792,9.696667,9.634118,7.767987,1.903241,-4.510077,-8.497621,-0.666773,-1.870605,4.137255,2014,10,8,14,37,3,0,2014-10-08 14:37:03:798
9.696667,9.634118,7.767987,9.696667,9.634118,7.767987,-6.906075,-1.776797,-6.732196,-0.666773,-1.870605,4.137255,2014,10,8,14,37,3,0,2014-10-08 14:37:03:813
9.696667,9.634118,7.767987,9.696667,9.634118,7.767987,-6.906075,-1.776797,-6.732196,-3.707011,0.377095,-5.786752,2014,10,8,14,37,4,0,2014-10-08 14:37:04:100
19.587713,-19.525164,-11.782764,9.696667,9.634118,7.767987,-6.906075,-1.776797,-6.732196,-3.707011,0.377095,-5.786752,2014,10,8,14,37,4,0,2014-10-08 14:37:04:104
19.587713,-19.525164,-11.782764,9.696667,9.634118,7.767987,-6.906075,-1.776797,-6.732196,-0.895778,7.980953,-9.611052,2014,10,8,14,38,1,0,2014-10-08 14:38:01:333
9.875034,-7.125593,-5.560234,9.696667,9.634118,7.767987,-6.906075,-1.776797,-6.732196,-0.895778,7.980953,-9.611052,2014,10,8,14,38,1,0,2014-10-08 14:38:01:335
9.875034,-7.125593,-5.560234,4.794688,-4.717924,2.475006,-6.906075,-1.776797,-6.732196,-0.895778,7.980953,-9.611052,2014,10,8,14,38,1,0,2014-10-08 14:38:01:337
4.794688,-4.717924,2.475006,4.794688,-4.717924,2.475006,5.080347,-2.407669,-8.035240,-0.895778,7.980953,-9.611052,2014,10,8,14,38,1,0,2014-10-08 14:38:01:370
4.794688,-4.717924,2.475006,4.794688,-4.717924,2.475006,5.080347,-2.407669,-8.035240,-1.154637,-0.632776,-2.989368,2014,10,8,14,38,1,0,2014-10-08 14:38:01:408
5.275773,-14.607473,2.410063,4.794688,-4.717924,2.475006,5.080347,-2.407669,-8.035240,-1.154637,-0.632776,-2.989368,2014,10,8,14,38,1,0,2014-10-08 14:38:01:415
5.275773,-14.607473,2.410063,-1.219995,-19.645771,7.757064,5.080347,-2.407669,-8.035240,-1.154637,-0.632776,-2.989368,2014,10,8,14,38,1,0,2014-10-08 14:38:01:419
-1.219995,-19.645771,7.757064,-1.219995,-19.645771,7.757064,6.495769,5.038298,-5.347001,-1.154637,-0.632776,-2.989368,2014,10,8,14,38,1,0,2014-10-08 14:38:01:421
-1.219995,-19.645771,7.757064,-1.219995,-19.645771,7.757064,6.495769,5.038298,-5.347001,-0.032779,0.005369,-0.000624,2014,10,8,14,38,1,0,2014-10-08 14:38:01:424
5.704335,-14.595503,-3.685574,-1.219995,-19.645771,7.757064,6.495769,5.038298,-5.347001,-0.032779,0.005369,-0.000624,2014,10,8,14,38,1,0,2014-10-08 14:38:01:426
5.704335,-14.595503,-3.685574,-0.791433,-19.633801,1.661426,6.495769,5.038298,-5.347001,-0.032779,0.005369,-0.000624,2014,10,8,14,38,1,0,2014-10-08 14:38:01:428
-0.791433,-19.633801,1.661426,-0.791433,-19.633801,1.661426,6.495769,5.038298,-5.347001,-0.032779,0.005369,-0.000624,2014,10,8,14,38,1,0,2014-10-08 14:38:01:430
-0.791433,-19.633801,1.661426,-0.791433,-19.633801,1.661426,6.495769,5.038298,-5.347001,-0.032779,0.005369,-0.000624,2014,10,8,14,38,1,0,2014-10-08 14:38:01:431
-6.142175,-9.914838,-3.951331,-0.791433,-19.633801,1.661426,6.495769,5.038298,-5.347001,-0.032779,0.005369,-0.000624,2014,10,8,14,38,1,0,2014-10-08 14:38:01:433
-6.142175,-9.914838,-3.951331,-10.539724,-11.226861,-12.617892,6.495769,5.038298,-5.347001,-0.032779,0.005369,-0.000624,2014,10,8,14,38,1,0,2014-10-08 14:38:01:435
-10.539724,-11.226861,-12.617892,-10.539724,-11.226861,-12.617892,4.397550,1.312023,8.666561,-0.032779,0.005369,-0.000624,2014,10,8,14,38,1,0,2014-10-08 14:38:01:437
-10.539724,-11.226861,-12.617892,-10.539724,-11.226861,-12.617892,4.397550,1.312023,8.666561,-0.032779,0.005369,-0.000624,2014,10,8,14,38,1,0,2014-10-08 14:38:01:439
0.367660,-16.182858,-5.933730,-10.539724,-11.226861,-12.617892,4.397550,1.312023,8.666561,-0.032779,0.005369,-0.000624,2014,10,8,14,38,1,0,2014-10-08 14:38:01:441
0.367660,-16.182858,-5.933730,-10.539724,-11.226861,-12.617892,4.397550,1.312023,8.666561,-0.032795,0.005374,-0.000622,2014,10,8,14,38,1,0,2014-10-08 14:38:01:445
8.828769,-18.184410,-4.516362,-10.539724,-11.226861,-12.617892,4.397550,1.312023,8.666561,-0.032795,0.005374,-0.000622,2014,10,8,14,38,1,0,2014-10-08 14:38:01:448
8.828769,-18.184410,-4.516362,4.628441,-18.831295,-13.354259,4.397550,1.312023,8.666561,-0.032795,0.005374,-0.000622,2014,10,8,14,38,1,0,2014-10-08 14:38:01:450
4.628441,-18.831295,-13.354259,4.628441,-18.831295,-13.354259,4.200327,0.646883,8.837896,-0.032795,0.005374,-0.000622,2014,10,8,14,38,1,0,2014-10-08 14:38:01:455
4.628441,-18.831295,-13.354259,4.628441,-18.831295,-13.354259,4.200327,0.646883,8.837896,-0.032795,0.005374,-0.000622,2014,10,8,14,38,1,0,2014-10-08 14:38:01:458
0.707636,-4.310012,1.871368,4.628441,-18.831295,-13.354259,4.200327,0.646883,8.837896,-0.032795,0.005374,-0.000622,2014,10,8,14,38,1,0,2014-10-08 14:38:01:461
0.707636,-4.310012,1.871368,-3.481319,-4.893150,-6.976255,4.200327,0.646883,8.837896,-0.032795,0.005374,-0.000622,2014,10,8,14,38,1,0,2014-10-08 14:38:01:465
-3.481319,-4.893150,-6.976255,-3.481319,-4.893150,-6.976255,4.188955,0.583138,8.847623,-0.032795,0.005374,-0.000622,2014,10,8,14,38,1,0,2014-10-08 14:38:01:467
-3.481319,-4.893150,-6.976255,-3.481319,-4.893150,-6.976255,4.188955,0.583138,8.847623,-0.032795,0.005374,-0.000622,2014,10,8,14,39,1,0,2014-10-08 14:39:01:302
5.673211,-2.356343,3.377321,-3.481319,-4.893150,-6.976255,4.188955,0.583138,8.847623,-0.032795,0.005374,-0.000622,2014,10,8,14,39,1,0,2014-10-08 14:39:01:305
5.673211,-2.356343,3.377321,1.499668,-2.611326,-5.493196,4.188955,0.583138,8.847623,-0.032795,0.005374,-0.000622,2014,10,8,14,39,1,0,2014-10-08 14:39:01:307
1.499668,-2.611326,-5.493196,1.499668,-2.611326,-5.493196,4.173542,0.254982,8.870518,-0.032795,0.005374,-0.000622,2014,10,8,14,39,1,0,2014-10-08 14:39:01:309
1.499668,-2.611326,-5.493196,1.499668,-2.611326,-5.493196,4.173542,0.254982,8.870518,-0.032843,0.005389,-0.000616,2014,10,8,14,39,1,0,2014-10-08 14:39:01:311
19.587713,-18.730289,-10.451589,1.499668,-2.611326,-5.493196,4.173542,0.254982,8.870518,-0.032843,0.005389,-0.000616,2014,10,8,14,39,1,0,2014-10-08 14:39:01:405
19.587713,-18.730289,-10.451589,15.224729,-18.773684,-19.233969,4.173542,0.254982,8.870518,-0.032843,0.005389,-0.000616,2014,10,8,14,40,1,0,2014-10-08 14:40:01:329
15.224729,-18.773684,-19.233969,15.224729,-18.773684,-19.233969,4.362984,0.043395,8.782381,-0.032843,0.005389,-0.000616,2014,10,8,14,40,1,0,2014-10-08 14:40:01:359
15.224729,-18.773684,-19.233969,15.224729,-18.773684,-19.233969,4.362984,0.043395,8.782381,-0.032843,0.005389,-0.000616,2014,10,8,14,40,1,0,2014-10-08 14:40:01:393
6.319645,-10.163836,-4.205116,15.224729,-18.773684,-19.233969,4.362984,0.043395,8.782381,-0.032843,0.005389,-0.000616,2014,10,8,14,40,1,0,2014-10-08 14:40:01:398
6.319645,-10.163836,-4.205116,1.967884,-10.143933,-12.993183,4.362984,0.043395,8.782381,-0.032843,0.005389,-0.000616,2014,10,8,14,40,1,0,2014-10-08 14:40:01:400
1.967884,-10.143933,-12.993183,1.967884,-10.143933,-12.993183,4.351761,-0.019902,8.788067,-0.032843,0.005389,-0.000616,2014,10,8,14,40,1,0,2014-10-08 14:40:01:406
1.967884,-10.143933,-12.993183,1.967884,-10.143933,-12.993183,4.351761,-0.019902,8.788067,-0.032843,0.005389,-0.000616,2014,10,8,14,40,1,0,2014-10-08 14:40:01:428
8.124873,-14.289044,-5.327997,1.967884,-10.143933,-12.993183,4.351761,-0.019902,8.788067,-0.032843,0.005389,-0.000616,2014,10,8,14,40,1,0,2014-10-08 14:40:01:434
8.124873,-14.289044,-5.327997,3.395128,-13.596821,-13.890709,4.351761,-0.019902,8.788067,-0.032843,0.005389,-0.000616,2014,10,8,14,40,1,0,2014-10-08 14:40:01:440
3.395128,-13.596821,-13.890709,3.395128,-13.596821,-13.890709,4.729745,-0.692224,8.562713,-0.032843,0.005389,-0.000616,2014,10,8,14,40,1,0,2014-10-08 14:40:01:465
3.395128,-13.596821,-13.890709,3.395128,-13.596821,-13.890709,4.729745,-0.692224,8.562713,-0.032843,0.005389,-0.000616,2014,10,8,14,40,1,0,2014-10-08 14:40:01:480
19.587713,-14.818163,-6.297648,3.395128,-13.596821,-13.890709,4.729745,-0.692224,8.562713,-0.032843,0.005389,-0.000616,2014,10,8,14,40,1,0,2014-10-08 14:40:01:482
19.587713,-14.818163,-6.297648,14.868891,-14.064289,-14.861109,4.729745,-0.692224,8.562713,-0.032843,0.005389,-0.000616,2014,10,8,14,40,1,0,2014-10-08 14:40:01:484
14.868891,-14.064289,-14.861109,14.868891,-14.064289,-14.861109,4.718822,-0.753874,8.563461,-0.032843,0.005389,-0.000616,2014,10,8,14,40,1,0,2014-10-08 14:40:01:496
14.868891,-14.064289,-14.861109,14.868891,-14.064289,-14.861109,4.718822,-0.753874,8.563461,-0.032843,0.005389,-0.000616,2014,10,8,14,40,1,0,2014-10-08 14:40:01:502
7.612514,-5.978771,2.762011,14.868891,-14.064289,-14.861109,4.718822,-0.753874,8.563461,-0.032843,0.005389,-0.000616,2014,10,8,14,40,1,0,2014-10-08 14:40:01:505
7.612514,-5.978771,2.762011,2.904616,-5.163246,-5.801899,4.718822,-0.753874,8.563461,-0.032843,0.005389,-0.000616,2014,10,8,14,40,1,0,2014-10-08 14:40:01:514
2.904616,-5.163246,-5.801899,2.904616,-5.163246,-5.801899,4.707898,-0.815525,8.563910,-0.032843,0.005389,-0.000616,2014,10,8,14,41,1,0,2014-10-08 14:41:01:317
2.904616,-5.163246,-5.801899,2.904616,-5.163246,-5.801899,4.707898,-0.815525,8.563910,-0.032843,0.005389,-0.000616,2014,10,8,14,41,1,0,2014-10-08 14:41:01:320
4.758626,0.952443,3.101988,2.904616,-5.163246,-5.801899,4.707898,-0.815525,8.563910,-0.032843,0.005389,-0.000616,2014,10,8,14,41,1,0,2014-10-08 14:41:01:322
4.758626,0.952443,3.101988,-0.200365,2.151789,-5.272930,4.707898,-0.815525,8.563910,-0.032843,0.005389,-0.000616,2014,10,8,14,41,1,0,2014-10-08 14:41:01:328
-0.200365,2.151789,-5.272930,-0.200365,2.151789,-5.272930,4.958990,-1.199345,8.374918,-0.032843,0.005389,-0.000616,2014,10,8,14,41,1,0,2014-10-08 14:41:01:337
-0.200365,2.151789,-5.272930,-0.200365,2.151789,-5.272930,4.958990,-1.199345,8.374918,-0.032822,0.005382,-0.000619,2014,10,8,14,41,1,0,2014-10-08 14:41:01:359
19.587713,-18.366369,1.222539,-0.200365,2.151789,-5.272930,4.958990,-1.199345,8.374918,-0.032822,0.005382,-0.000619,2014,10,8,14,41,1,0,2014-10-08 14:41:01:361
19.587713,-18.366369,1.222539,14.503775,-17.202190,-7.082048,4.958990,-1.199345,8.374918,-0.032822,0.005382,-0.000619,2014,10,8,14,41,1,0,2014-10-08 14:41:01:368
14.503775,-17.202190,-7.082048,14.503775,-17.202190,-7.082048,5.083938,-1.164181,8.304588,-0.032822,0.005382,-0.000619,2014,10,8,14,41,24,0,2014-10-08 14:41:24:292
14.503775,-17.202190,-7.082048,14.503775,-17.202190,-7.082048,5.083938,-1.164181,8.304588,-0.032822,0.005382,-0.000619,2014,10,8,14,41,24,0,2014-10-08 14:41:24:315
2.606238,-13.702465,-4.662408,14.503775,-17.202190,-7.082048,5.083938,-1.164181,8.304588,-0.032822,0.005382,-0.000619,2014,10,8,14,41,24,0,2014-10-08 14:41:24:328
2.606238,-13.702465,-4.662408,-2.467075,-12.478430,-12.964902,5.083938,-1.164181,8.304588,-0.032822,0.005382,-0.000619,2014,10,8,14,41,24,0,2014-10-08 14:41:24:330
-2.467075,-12.478430,-12.964902,-2.467075,-12.478430,-12.964902,5.073313,-1.224036,8.302493,-0.032822,0.005382,-0.000619,2014,10,8,14,41,24,0,2014-10-08 14:41:24:332
-2.467075,-12.478430,-12.964902,-2.467075,-12.478430,-12.964902,5.073313,-1.224036,8.302493,-0.032822,0.005382,-0.000619,2014,10,8,14,41,24,0,2014-10-08 14:41:24:340
10.708217,-14.262709,-3.750218,-2.467075,-12.478430,-12.964902,5.073313,-1.224036,8.302493,-0.032822,0.005382,-0.000619,2014,10,8,14,41,24,0,2014-10-08 14:41:24:371
10.708217,-14.262709,-3.750218,5.484817,-12.157457,-11.778425,5.073313,-1.224036,8.302493,-0.032822,0.005382,-0.000619,2014,10,8,14,41,24,0,2014-10-08 14:41:24:374
5.484817,-12.157457,-11.778425,5.484817,-12.157457,-11.778425,5.223400,-2.105252,8.028207,-0.032822,0.005382,-0.000619,2014,10,8,14,41,24,0,2014-10-08 14:41:24:376
5.484817,-12.157457,-11.778425,5.484817,-12.157457,-11.778425,5.223400,-2.105252,8.028207,-0.032816,0.005380,-0.000619,2014,10,8,14,41,24,0,2014-10-08 14:41:24:378
19.587713,-14.612262,1.421258,5.484817,-12.157457,-11.778425,5.223400,-2.105252,8.028207,-0.032816,0.005380,-0.000619,2014,10,8,14,41,24,0,2014-10-08 14:41:24:380
19.587713,-14.612262,1.421258,14.374488,-12.449250,-6.598270,5.223400,-2.105252,8.028207,-0.032816,0.005380,-0.000619,2014,10,8,14,41,24,0,2014-10-08 14:41:24:382
14.374488,-12.449250,-6.598270,14.374488,-12.449250,-6.598270,5.213224,-2.163012,8.019528,-0.032816,0.005380,-0.000619,2014,10,8,14,41,24,0,2014-10-08 14:41:24:454
14.374488,-12.449250,-6.598270,14.374488,-12.449250,-6.598270,5.213224,-2.163012,8.019528,-0.032816,0.005380,-0.000619,2014,10,8,14,41,24,0,2014-10-08 14:41:24:460
6.238242,-2.555062,0.444424,14.374488,-12.449250,-6.598270,5.213224,-2.163012,8.019528,-0.032816,0.005380,-0.000619,2014,10,8,14,41,24,0,2014-10-08 14:41:24:462
6.238242,-2.555062,0.444424,1.035043,-0.334440,-7.565827,5.213224,-2.163012,8.019528,-0.032816,0.005380,-0.000619,2014,10,8,14,41,24,0,2014-10-08 14:41:24:489
1.035043,-0.334440,-7.565827,1.035043,-0.334440,-7.565827,5.203199,-2.220622,8.010251,-0.032816,0.005380,-0.000619,2014,10,8,14,41,24,0,2014-10-08 14:41:24:493
1.035043,-0.334440,-7.565827,1.035043,-0.334440,-7.565827,5.203199,-2.220622,8.010251,-0.032816,0.005380,-0.000619,2014,10,8,14,41,24,0,2014-10-08 14:41:24:495
4.033183,-0.112976,3.954323,1.035043,-0.334440,-7.565827,5.203199,-2.220622,8.010251,-0.032816,0.005380,-0.000619,2014,10,8,14,41,24,0,2014-10-08 14:41:24:497
4.033183,-0.112976,3.954323,-1.396119,2.258031,-3.860501,5.203199,-2.220622,8.010251,-0.032816,0.005380,-0.000619,2014,10,8,14,41,24,0,2014-10-08 14:41:24:499
-1.396119,2.258031,-3.860501,-1.396119,2.258031,-3.860501,5.429301,-2.371008,7.814824,-0.032816,0.005380,-0.000619,2014,10,8,14,41,24,0,2014-10-08 14:41:24:533
-1.396119,2.258031,-3.860501,-1.396119,2.258031,-3.860501,5.429301,-2.371008,7.814824,-0.032795,0.005374,-0.000622,2014,10,8,14,41,24,0,2014-10-08 14:41:24:535
19.587713,-19.525164,-0.173280,-1.396119,2.258031,-3.860501,5.429301,-2.371008,7.814824,-0.032795,0.005374,-0.000622,2014,10,8,14,41,24,0,2014-10-08 14:41:24:537
19.587713,-19.525164,-0.173280,14.105888,-17.171663,-7.956531,5.429301,-2.371008,7.814824,-0.032795,0.005374,-0.000622,2014,10,8,14,41,24,0,2014-10-08 14:41:24:561
14.105888,-17.171663,-7.956531,14.105888,-17.171663,-7.956531,5.481824,-2.353500,7.783250,-0.032795,0.005374,-0.000622,2014,10,8,14,41,24,0,2014-10-08 14:41:24:569
14.105888,-17.171663,-7.956531,14.105888,-17.171663,-7.956531,5.481824,-2.353500,7.783250,-0.032795,0.005374,-0.000622,2014,10,8,14,41,24,0,2014-10-08 14:41:24:571
0.628628,-15.275455,-4.885069,14.105888,-17.171663,-7.956531,5.481824,-2.353500,7.783250,-0.032795,0.005374,-0.000622,2014,10,8,14,41,24,0,2014-10-08 14:41:24:715
0.628628,-15.275455,-4.885069,-4.843470,-12.865991,-12.658144,5.481824,-2.353500,7.783250,-0.032795,0.005374,-0.000622,2014,10,8,14,41,24,0,2014-10-08 14:41:24:717
-4.843470,-12.865991,-12.658144,-4.843470,-12.865991,-12.658144,5.472097,-2.409465,7.773075,-0.032795,0.005374,-0.000622,2014,10,8,14,41,24,0,2014-10-08 14:41:24:719
-4.843470,-12.865991,-12.658144,-4.843470,-12.865991,-12.658144,5.472097,-2.409465,7.773075,-0.032795,0.005374,-0.000622,2014,10,8,14,41,24,0,2014-10-08 14:41:24:720
13.068899,-13.091944,-2.859575,-4.843470,-12.865991,-12.658144,5.472097,-2.409465,7.773075,-0.032795,0.005374,-0.000622,2014,10,8,14,41,24,0,2014-10-08 14:41:24:735
13.068899,-13.091944,-2.859575,7.606678,-10.626514,-10.621876,5.472097,-2.409465,7.773075,-0.032795,0.005374,-0.000622,2014,10,8,14,41,24,0,2014-10-08 14:41:24:783
7.606678,-10.626514,-10.621876,7.606678,-10.626514,-10.621876,5.462222,-2.465429,7.762301,-0.032795,0.005374,-0.000622,2014,10,8,14,41,24,0,2014-10-08 14:41:24:807
7.606678,-10.626514,-10.621876,7.606678,-10.626514,-10.621876,5.462222,-2.465429,7.762301,-0.032795,0.005374,-0.000622,2014,10,8,14,41,24,0,2014-10-08 14:41:24:809
19.587713,-17.928232,-3.711910,7.606678,-10.626514,-10.621876,5.462222,-2.465429,7.762301,-0.032795,0.005374,-0.000622,2014,10,8,14,41,24,0,2014-10-08 14:41:24:811
19.587713,-17.928232,-3.711910,14.135218,-15.407137,-11.463288,5.462222,-2.465429,7.762301,-0.032795,0.005374,-0.000622,2014,10,8,14,41,24,0,2014-10-08 14:41:24:912
14.135218,-15.407137,-11.463288,14.135218,-15.407137,-11.463288,5.452495,-2.521094,7.751378,-0.032795,0.005374,-0.000622,2014,10,8,14,41,24,0,2014-10-08 14:41:24:914
14.135218,-15.407137,-11.463288,14.135218,-15.407137,-11.463288,5.452495,-2.521094,7.751378,-0.032795,0.005374,-0.000622,2014,10,8,14,41,24,0,2014-10-08 14:41:24:917
3.824887,2.127996,4.758775,14.135218,-15.407137,-11.463288,5.452495,-2.521094,7.751378,-0.032795,0.005374,-0.000622,2014,10,8,14,41,24,0,2014-10-08 14:41:24:919
3.824887,2.127996,4.758775,-1.617882,4.704756,-2.981080,5.452495,-2.521094,7.751378,-0.032795,0.005374,-0.000622,2014,10,8,14,41,24,0,2014-10-08 14:41:24:933
-1.617882,4.704756,-2.981080,-1.617882,4.704756,-2.981080,5.442769,-2.576760,7.739856,-0.032795,0.005374,-0.000622,2014,10,8,14,41,24,0,2014-10-08 14:41:24:950
-1.617882,4.704756,-2.981080,-1.617882,4.704756,-2.981080,5.442769,-2.576760,7.739856,-0.032795,0.005374,-0.000622,2014,10,8,14,41,24,0,2014-10-08 14:41:24:955
13.303532,-3.153613,1.512238,-1.617882,4.704756,-2.981080,5.442769,-2.576760,7.739856,-0.032795,0.005374,-0.000622,2014,10,8,14,41,24,0,2014-10-08 14:41:24:967
13.303532,-3.153613,1.512238,7.818565,-0.734870,-6.248867,5.442769,-2.576760,7.739856,-0.032795,0.005374,-0.000622,2014,10,8,14,41,24,0,2014-10-08 14:41:24:968
7.818565,-0.734870,-6.248867,7.818565,-0.734870,-6.248867,5.484966,-2.418742,7.761104,-0.032795,0.005374,-0.000622,2014,10,8,14,41,25,0,2014-10-08 14:41:25:10
7.818565,-0.734870,-6.248867,7.818565,-0.734870,-6.248867,5.484966,-2.418742,7.761104,-0.032795,0.005374,-0.000622,2014,10,8,14,41,25,0,2014-10-08 14:41:25:14
19.587713,-11.370513,-3.015198,7.818565,-0.734870,-6.248867,5.484966,-2.418742,7.761104,-0.032795,0.005374,-0.000622,2014,10,8,14,41,25,0,2014-10-08 14:41:25:34
19.587713,-11.370513,-3.015198,13.640665,-8.854057,-10.395474,5.484966,-2.418742,7.761104,-0.032795,0.005374,-0.000622,2014,10,8,14,41,25,0,2014-10-08 14:41:25:36
13.640665,-8.854057,-10.395474,13.640665,-8.854057,-10.395474,5.947047,-2.516456,7.380276,-0.032795,0.005374,-0.000622,2014,10,8,14,41,25,0,2014-10-08 14:41:25:46
13.640665,-8.854057,-10.395474,13.640665,-8.854057,-10.395474,5.947047,-2.516456,7.380276,-1.964119,-0.182113,-7.909145,2014,10,8,14,41,25,0,2014-10-08 14:41:25:48
3.362806,-13.898789,0.121206,13.640665,-8.854057,-10.395474,5.947047,-2.516456,7.380276,-1.964119,-0.182113,-7.909145,2014,10,8,14,41,25,0,2014-10-08 14:41:25:61
3.362806,-13.898789,0.121206,-1.918504,-17.242891,-7.434744,5.947047,-2.516456,7.380276,-1.964119,-0.182113,-7.909145,2014,10,8,14,41,25,0,2014-10-08 14:41:25:63
-1.918504,-17.242891,-7.434744,-1.918504,-17.242891,-7.434744,5.281310,3.344101,7.555951,-1.964119,-0.182113,-7.909145,2014,10,8,14,41,25,0,2014-10-08 14:41:25:79
-1.918504,-17.242891,-7.434744,-1.918504,-17.242891,-7.434744,5.281310,3.344101,7.555951,-0.851983,0.703122,-0.301027,2014,10,8,14,41,25,0,2014-10-08 14:41:25:81
4.619762,0.988356,0.868197,-1.918504,-17.242891,-7.434744,5.281310,3.344101,7.555951,-0.851983,0.703122,-0.301027,2014,10,8,14,41,25,0,2014-10-08 14:41:25:85
4.619762,0.988356,0.868197,2.361431,-0.318578,-8.584859,5.281310,3.344101,7.555951,-0.851983,0.703122,-0.301027,2014,10,8,14,41,25,0,2014-10-08 14:41:25:101
2.361431,-0.318578,-8.584859,2.361431,-0.318578,-8.584859,2.258331,1.306935,9.453056,-0.851983,0.703122,-0.301027,2014,10,8,14,41,25,0,2014-10-08 14:41:25:110
2.361431,-0.318578,-8.584859,2.361431,-0.318578,-8.584859,2.258331,1.306935,9.453056,-0.031251,0.004904,-0.000802,2014,10,8,14,41,25,0,2014-10-08 14:41:25:116
1.157746,2.336292,2.441188,2.361431,-0.318578,-8.584859,2.258331,1.306935,9.453056,-0.031251,0.004904,-0.000802,2014,10,8,14,41,25,0,2014-10-08 14:41:25:118
1.157746,2.336292,2.441188,-1.348833,0.986710,-6.943035,2.258331,1.306935,9.453056,-0.031251,0.004904,-0.000802,2014,10,8,14,41,25,0,2014-10-08 14:41:25:179
-1.348833,0.986710,-6.943035,-1.348833,0.986710,-6.943035,2.258331,1.306935,9.453056,-0.031251,0.004904,-0.000802,2014,10,8,14,41,25,0,2014-10-08 14:41:25:185
19.587713,-15.093496,-4.652832,-1.348833,0.986710,-6.943035,2.258331,1.306935,9.453056,-0.031251,0.004904,-0.000802,2014,10,8,14,41,25,0,2014-10-08 14:41:25:230
19.587713,-15.093496,-4.652832,18.449867,-5.502624,-2.951751,2.258331,1.306935,9.453056,-0.031251,0.004904,-0.000802,2014,10,8,14,41,25,0,2014-10-08 14:41:25:235
18.449867,-5.502624,-2.951751,18.449867,-5.502624,-2.951751,1.137844,-9.590873,-1.701080,-0.031251,0.004904,-0.000802,2014,10,8,14,41,25,0,2014-10-08 14:41:25:247
18.449867,-5.502624,-2.951751,18.449867,-5.502624,-2.951751,1.137844,-9.590873,-1.701080,-0.031251,0.004904,-0.000802,2014,10,8,14,41,25,0,2014-10-08 14:41:25:261
9.858275,-4.671536,-1.324891,18.449867,-5.502624,-2.951751,1.137844,-9.590873,-1.701080,-0.031251,0.004904,-0.000802,2014,10,8,14,41,25,0,2014-10-08 14:41:25:293
9.858275,-4.671536,-1.324891,8.717438,4.907814,0.437840,1.137844,-9.590873,-1.701080,-0.031251,0.004904,-0.000802,2014,10,8,14,41,25,0,2014-10-08 14:41:25:310
8.717438,4.907814,0.437840,8.717438,4.907814,0.437840,1.140837,-9.579350,-1.762731,-0.031251,0.004904,-0.000802,2014,10,8,14,41,25,0,2014-10-08 14:41:25:312
8.717438,4.907814,0.437840,8.717438,4.907814,0.437840,1.140837,-9.579350,-1.762731,-0.031245,0.004902,-0.000803,2014,10,8,14,41,25,0,2014-10-08 14:41:25:334
14.665833,-13.446285,-2.196381,8.717438,4.907814,0.437840,1.140837,-9.579350,-1.762731,-0.031245,0.004902,-0.000803,2014,10,8,14,41,25,0,2014-10-08 14:41:25:343
14.665833,-13.446285,-2.196381,12.974329,-3.962254,-0.361973,1.140837,-9.579350,-1.762731,-0.031245,0.004902,-0.000803,2014,10,8,14,41,25,0,2014-10-08 14:41:25:345
12.974329,-3.962254,-0.361973,12.974329,-3.962254,-0.361973,1.691504,-9.484032,-1.834407,-0.031245,0.004902,-0.000803,2014,10,8,14,41,25,0,2014-10-08 14:41:25:347
12.974329,-3.962254,-0.361973,12.974329,-3.962254,-0.361973,1.691504,-9.484032,-1.834407,-0.031245,0.004902,-0.000803,2014,10,8,14,41,25,0,2014-10-08 14:41:25:361
12.752865,-14.286651,1.720533,12.974329,-3.962254,-0.361973,1.691504,-9.484032,-1.834407,-0.031245,0.004902,-0.000803,2014,10,8,14,41,25,0,2014-10-08 14:41:25:367
12.752865,-14.286651,1.720533,10.349236,-4.958092,3.557185,1.691504,-9.484032,-1.834407,-0.031245,0.004902,-0.000803,2014,10,8,14,41,25,0,2014-10-08 14:41:25:383
10.349236,-4.958092,3.557185,10.349236,-4.958092,3.557185,2.403629,-9.328558,-1.836652,-0.031245,0.004902,-0.000803,2014,10,8,14,41,25,0,2014-10-08 14:41:25:385
10.349236,-4.958092,3.557185,10.349236,-4.958092,3.557185,2.403629,-9.328558,-1.836652,-0.031245,0.004902,-0.000803,2014,10,8,14,41,25,0,2014-10-08 14:41:25:394
1.490540,1.989133,0.597653,10.349236,-4.958092,3.557185,2.403629,-9.328558,-1.836652,-0.031245,0.004902,-0.000803,2014,10,8,14,41,25,0,2014-10-08 14:41:25:396
1.490540,1.989133,0.597653,-1.435324,11.211597,2.196530,2.403629,-9.328558,-1.836652,-0.031245,0.004902,-0.000803,2014,10,8,14,41,25,0,2014-10-08 14:41:25:409
-1.435324,11.211597,2.196530,-1.435324,11.211597,2.196530,2.925864,-9.222465,-1.598878,-0.031245,0.004902,-0.000803,2014,10,8,14,41,25,0,2014-10-08 14:41:25:411
-1.435324,11.211597,2.196530,-1.435324,11.211597,2.196530,2.925864,-9.222465,-1.598878,-0.031245,0.004902,-0.000803,2014,10,8,14,41,25,0,2014-10-08 14:41:25:412
8.843134,0.004339,1.667861,-1.435324,11.211597,2.196530,2.925864,-9.222465,-1.598878,-0.031245,0.004902,-0.000803,2014,10,8,14,41,25,0,2014-10-08 14:41:25:566
8.843134,0.004339,1.667861,5.797859,9.181614,3.303400,2.925864,-9.222465,-1.598878,-0.031245,0.004902,-0.000803,2014,10,8,14,41,25,0,2014-10-08 14:41:25:569
5.797859,9.181614,3.303400,5.797859,9.181614,3.303400,3.045275,-9.177275,-1.635539,-0.031245,0.004902,-0.000803,2014,10,8,14,41,25,0,2014-10-08 14:41:25:572
5.797859,9.181614,3.303400,5.797859,9.181614,3.303400,3.045275,-9.177275,-1.635539,-0.031245,0.004902,-0.000803,2014,10,8,14,41,25,0,2014-10-08 14:41:25:580
