ACCELERATION X,ACCELERATION Y,ACCELERATION Z,LINEAR_ACCELERATION X,LINEAR_ACCELERATION Y,LINEAR_ACCELERATION Z,GRAVITY X,GRAVITY Y,GRAVITY Z,GYROSCOPE X,GYROSCOPE Y,GYROSCOPE Z,Year,Month,Day,Hour,Minute,Second,Millisecond,Date
0.003741,0.138864,9.896732,-0.051625,0.008080,0.091129,0.055366,0.130783,9.805603,0.001864,0.000666,-0.000999,2014,10,13,16,27,21,498,2014-10-13 16:27:21:498,
0.051625,0.129287,9.951798,0.027683,-0.025289,0.146495,0.023942,0.154576,9.805304,0.002929,0.001731,-0.000999,2014,10,13,16,27,22,15,2014-10-13 16:27:22:15,
0.037260,0.126893,9.858425,0.008679,-0.028431,0.053121,0.028581,0.155324,9.805304,0.001864,0.001731,0.000067,2014,10,13,16,27,22,533,2014-10-13 16:27:22:533,
0.051625,0.126893,9.956587,0.021997,-0.026486,0.151284,0.029628,0.153379,9.805304,-0.000266,0.003862,0.001132,2014,10,13,16,27,23,58,2014-10-13 16:27:23:58,
0.010924,0.138864,9.891944,-0.022446,-0.017208,0.086640,0.033369,0.156072,9.805304,0.002929,0.000666,-0.000999,2014,10,13,16,27,23,576,2014-10-13 16:27:23:576,
0.044442,0.124498,9.937433,0.015113,-0.033818,0.132130,0.029329,0.158317,9.805304,0.001864,0.000666,0.000067,2014,10,13,16,27,24,94,2014-10-13 16:27:24:94,
0.051625,0.155623,9.982924,0.019902,-0.002245,0.177620,0.031723,0.157868,9.805304,0.000799,0.002796,0.001132,2014,10,13,16,27,24,613,2014-10-13 16:27:24:613,
0.051625,0.102951,9.860819,0.019303,-0.057910,0.055665,0.032322,0.160860,9.805154,0.000799,-0.001465,0.001132,2014,10,13,16,27,25,132,2014-10-13 16:27:25:132,
0.015712,0.098162,9.896732,-0.020650,-0.057610,0.091429,0.036362,0.155773,9.805304,0.003995,0.000666,0.000067,2014,10,13,16,27,25,651,2014-10-13 16:27:25:651,
0.037260,0.146046,9.889549,0.003591,-0.005088,0.084246,0.033668,0.151134,9.805304,0.000799,-0.000399,-0.000999,2014,10,13,16,27,26,169,2014-10-13 16:27:26:169,
0.065990,0.119710,9.853637,0.030376,-0.035015,0.048333,0.035614,0.154725,9.805304,0.001864,-0.000399,0.001132,2014,10,13,16,27,26,687,2014-10-13 16:27:26:687,
0.034866,0.148441,9.915886,-0.006734,-0.005836,0.110582,0.041599,0.154276,9.805304,0.001864,-0.003595,-0.000999,2014,10,13,16,27,27,206,2014-10-13 16:27:27:206,
0.027683,0.126893,9.942222,-0.013767,-0.031125,0.137068,0.041450,0.158017,9.805154,0.001864,-0.000399,-0.002064,2014,10,13,16,27,27,724,2014-10-13 16:27:27:724,
0.051625,0.107739,9.841665,0.011522,-0.050877,0.036512,0.040103,0.158616,9.805154,0.002929,0.001731,0.000067,2014,10,13,16,27,28,243,2014-10-13 16:27:28:243,
0.042048,0.119710,9.891944,-0.001646,-0.036063,0.086640,0.043694,0.155773,9.805304,0.000799,0.000666,0.000067,2014,10,13,16,27,28,762,2014-10-13 16:27:28:762,
0.056413,0.136469,9.992500,0.011522,-0.018106,0.187197,0.044891,0.154576,9.805304,0.000799,-0.000399,0.000067,2014,10,13,16,27,29,282,2014-10-13 16:27:29:282,
0.030077,0.131681,9.951798,-0.017657,-0.023493,0.146495,0.047734,0.155174,9.805304,0.000799,0.002796,0.000067,2014,10,13,16,27,29,800,2014-10-13 16:27:29:800,
0.030077,0.088585,9.927856,-0.014964,-0.068235,0.122703,0.045041,0.156820,9.805154,0.000799,0.002796,-0.002064,2014,10,13,16,27,30,319,2014-10-13 16:27:30:319,
0.049231,0.122104,9.994894,0.004938,-0.029030,0.189591,0.044293,0.151134,9.805304,0.001864,-0.002530,0.000067,2014,10,13,16,27,30,838,2014-10-13 16:27:30:838,
0.051625,0.167594,9.858425,0.006434,0.017358,0.053121,0.045191,0.150236,9.805304,0.001864,0.002796,0.000067,2014,10,13,16,27,31,358,2014-10-13 16:27:31:358,
0.077961,0.126893,9.944616,0.033968,-0.029928,0.139462,0.043993,0.156820,9.805154,0.001864,-0.001465,0.000067,2014,10,13,16,27,31,875,2014-10-13 16:27:31:875,
0.061202,0.105345,9.899126,0.012570,-0.052523,0.093972,0.048632,0.157868,9.805154,0.000799,-0.000399,-0.000999,2014,10,13,16,27,32,394,2014-10-13 16:27:32:394,
0.070779,0.160412,9.870396,0.020650,0.007632,0.065092,0.050129,0.152780,9.805304,0.000799,-0.001465,0.001132,2014,10,13,16,27,32,912,2014-10-13 16:27:32:912,
0.046837,0.136469,9.815330,-0.007482,-0.021398,0.010175,0.054318,0.157868,9.805154,0.001864,-0.001465,-0.000999,2014,10,13,16,27,33,431,2014-10-13 16:27:33:431,
0.051625,0.117316,9.851242,-0.002693,-0.042946,0.046088,0.054318,0.160262,9.805154,0.000799,-0.001465,0.001132,2014,10,13,16,27,33,951,2014-10-13 16:27:33:951,
0.068384,0.124498,9.829695,0.013318,-0.033220,0.024541,0.055067,0.157718,9.805154,-0.000266,0.001731,0.000067,2014,10,13,16,27,34,469,2014-10-13 16:27:34:469,
0.082750,0.174777,9.932645,0.028581,0.019752,0.127491,0.054169,0.155025,9.805154,0.001864,0.000666,-0.000999,2014,10,13,16,27,34,987,2014-10-13 16:27:34:987,
0.049231,0.160412,9.899126,-0.009278,-0.000449,0.093972,0.058508,0.160860,9.805154,0.000799,0.001731,0.001132,2014,10,13,16,27,35,505,2014-10-13 16:27:35:505,
0.106692,0.131681,9.987712,0.049680,-0.031274,0.182708,0.057012,0.162955,9.805004,-0.000266,-0.000399,0.000067,2014,10,13,16,27,36,22,2014-10-13 16:27:36:22,
0.116268,0.169988,9.820118,0.050129,0.010624,0.015113,0.066140,0.159364,9.805004,-0.000266,0.000666,-0.000999,2014,10,13,16,27,36,539,2014-10-13 16:27:36:539,
0.073173,0.169988,9.868002,-0.001047,0.004190,0.063147,0.074220,0.165798,9.804854,0.006125,-0.002530,0.001132,2014,10,13,16,27,37,59,2014-10-13 16:27:37:59,
0.123451,0.131681,9.997289,0.052822,-0.042048,0.192434,0.070629,0.173729,9.804854,-0.001332,-0.002530,0.016046,2014,10,13,16,27,37,577,2014-10-13 16:27:37:577,
0.087538,0.193930,9.829695,0.010624,0.016610,0.024989,0.076914,0.177321,9.804705,0.002929,0.002796,-0.002064,2014,10,13,16,27,38,94,2014-10-13 16:27:38:94,
0.054019,0.181959,9.860819,-0.026486,-0.000299,0.056264,0.080505,0.182259,9.804555,0.001864,-0.000399,0.000067,2014,10,13,16,27,38,638,2014-10-13 16:27:38:638,
0.092326,0.126893,9.844060,0.014814,-0.059556,0.039504,0.077512,0.186448,9.804555,0.015713,-0.005726,0.000067,2014,10,13,16,27,39,161,2014-10-13 16:27:39:161,
0.092326,0.160412,9.805753,0.010924,-0.023343,0.001197,0.081403,0.183755,9.804555,-0.020673,-0.001332,-0.000300,2014,10,13,16,27,39,835,2014-10-13 16:27:39:835,
0.111480,0.196325,9.870396,0.026037,0.011223,0.065990,0.085443,0.185102,9.804405,-0.001498,0.000799,0.000766,2014,10,13,16,27,40,357,2014-10-13 16:27:40:357,
0.073173,0.153229,9.875184,0.102951,-0.072724,0.071227,-0.029778,0.225953,9.803957,-0.000433,-0.000266,-0.000300,2014,10,13,16,27,40,879,2014-10-13 16:27:40:879,
0.054019,0.119710,9.896732,0.058658,-0.112228,0.092925,-0.004639,0.231938,9.803807,0.001698,0.002929,-0.000300,2014,10,13,16,27,41,401,2014-10-13 16:27:41:401,
0.065990,0.169988,9.870396,0.063297,-0.044143,0.066140,0.002693,0.214131,9.804255,-0.001498,0.000799,-0.001365,2014,10,13,16,27,41,925,2014-10-13 16:27:41:925,
0.056413,0.150835,9.815330,0.046687,-0.055516,0.010924,0.009726,0.206350,9.804405,-0.001498,0.000799,-0.003495,2014,10,13,16,27,42,448,2014-10-13 16:27:42:448,
-0.051326,0.146046,9.800964,-0.067187,-0.050877,-0.003591,0.015862,0.196923,9.804555,0.003828,0.001864,-0.000300,2014,10,13,16,27,42,970,2014-10-13 16:27:42:970,
0.073173,0.169988,9.769839,0.067337,-0.017208,-0.035015,0.005836,0.187197,9.804854,0.004894,-0.004527,-0.002430,2014,10,13,16,27,43,492,2014-10-13 16:27:43:492,
0.054019,0.162806,9.829695,0.039205,-0.021548,0.024840,0.014814,0.184354,9.804854,-0.004694,-0.002397,-0.000300,2014,10,13,16,27,44,14,2014-10-13 16:27:44:14,
0.010924,0.146046,9.686042,-0.010325,-0.032621,-0.118812,0.021249,0.178667,9.804854,0.002763,-0.001332,-0.015213,2014,10,13,16,27,44,536,2014-10-13 16:27:44:536,
0.073173,0.169988,9.863214,0.053720,-0.005686,0.058209,0.019453,0.175675,9.805004,0.000633,-0.001332,-0.000300,2014,10,13,16,27,45,59,2014-10-13 16:27:45:59,
0.082750,0.153229,9.829695,0.055067,-0.017957,0.024690,0.027683,0.171185,9.805004,0.001698,-0.001332,-0.000300,2014,10,13,16,27,45,581,2014-10-13 16:27:45:581,
0.065990,0.155623,9.834483,0.029329,-0.010325,0.029329,0.036661,0.165948,9.805154,-0.001498,-0.000266,0.003961,2014,10,13,16,27,46,104,2014-10-13 16:27:46:104,
0.061202,0.167594,9.698013,0.018555,0.005686,-0.107141,0.042647,0.161908,9.805154,0.001698,0.001864,-0.009887,2014,10,13,16,27,46,627,2014-10-13 16:27:46:627,
0.034866,0.155623,9.853637,-0.012420,-0.007931,0.048483,0.047285,0.163554,9.805154,0.000633,0.000799,0.000766,2014,10,13,16,27,47,150,2014-10-13 16:27:47:150,
0.065990,0.167594,9.808146,0.020650,0.006883,0.002993,0.045340,0.160711,9.805154,0.001698,-0.000266,-0.002430,2014,10,13,16,27,47,676,2014-10-13 16:27:47:676,
0.037260,0.167594,9.805753,-0.010774,0.006734,0.000599,0.048034,0.160860,9.805154,-0.000433,-0.002397,-0.000300,2014,10,13,16,27,48,198,2014-10-13 16:27:48:198,
0.056413,0.153229,9.836877,0.008230,-0.007482,0.031723,0.048183,0.160711,9.805154,0.001698,-0.001332,-0.000300,2014,10,13,16,27,48,720,2014-10-13 16:27:48:720,
0.077961,0.158017,9.812935,0.025738,0.001197,0.007781,0.052224,0.156820,9.805154,0.000633,0.001864,-0.000300,2014,10,13,16,27,49,243,2014-10-13 16:27:49:243,
0.032471,0.160412,9.868002,-0.024989,0.004190,0.062848,0.057461,0.156222,9.805154,-0.000433,0.000799,-0.002430,2014,10,13,16,27,49,767,2014-10-13 16:27:49:767,
0.070779,0.155623,9.829695,0.016610,0.001347,0.024541,0.054169,0.154276,9.805154,-0.002563,-0.003462,-0.002430,2014,10,13,16,27,50,289,2014-10-13 16:27:50:289,
0.044442,0.148441,9.839272,-0.013018,-0.003292,0.033968,0.057461,0.151733,9.805304,-0.000433,-0.001332,-0.000300,2014,10,13,16,27,50,812,2014-10-13 16:27:50:812,
0.046837,0.165200,9.781811,-0.011372,0.016759,-0.023493,0.058209,0.148441,9.805304,-0.000433,-0.000266,-0.001365,2014,10,13,16,27,51,335,2014-10-13 16:27:51:335,
0.044442,0.177171,9.891944,-0.013767,0.028581,0.086640,0.058209,0.148590,9.805304,-0.000433,-0.000266,-0.001365,2014,10,13,16,27,51,858,2014-10-13 16:27:51:858,
0.006135,0.146046,9.858425,-0.047734,-0.001646,0.053121,0.053870,0.147692,9.805304,-0.001498,0.000799,-0.001365,2014,10,13,16,27,52,381,2014-10-13 16:27:52:381,
0.015712,0.153229,9.781811,-0.031873,0.008230,-0.023643,0.047585,0.144999,9.805453,0.000633,-0.000266,-0.001365,2014,10,13,16,27,52,904,2014-10-13 16:27:52:904,
0.018106,0.155623,9.788993,-0.026635,0.010624,-0.016460,0.044742,0.144999,9.805453,0.000633,-0.000266,0.000766,2014,10,13,16,27,53,427,2014-10-13 16:27:53:427,
0.042048,0.146046,9.911098,0.000150,0.000000,0.105644,0.041899,0.146046,9.805453,0.000633,0.002929,-0.001365,2014,10,13,16,27,53,951,2014-10-13 16:27:53:951,
0.032471,0.150835,9.767446,-0.010774,0.006584,-0.038008,0.043245,0.144251,9.805453,-0.002563,-0.003462,0.000766,2014,10,13,16,27,54,473,2014-10-13 16:27:54:473,
0.008529,0.155623,9.793781,-0.035314,0.016759,-0.011672,0.043844,0.138864,9.805453,-0.001498,-0.000266,-0.037584,2014,10,13,16,27,55,12,2014-10-13 16:27:55:12,
-0.020201,0.150835,9.829695,-0.059705,0.010924,0.024241,0.039504,0.139911,9.805453,-0.001498,0.000799,-0.001365,2014,10,13,16,27,55,530,2014-10-13 16:27:55:530,
0.020500,0.112527,9.875184,-0.011522,-0.027833,0.069731,0.032022,0.140360,9.805453,-0.002563,0.002929,-0.000300,2014,10,13,16,27,56,48,2014-10-13 16:27:56:48,
0.015712,0.129287,9.853637,-0.014664,-0.003142,0.048034,0.030376,0.132429,9.805603,-0.000320,-0.002427,0.000757,2014,10,13,16,27,56,567,2014-10-13 16:27:56:567,
0.044442,0.131681,9.906309,0.015413,0.001796,0.100706,0.029030,0.129885,9.805603,-0.002451,-0.000297,-0.000308,2014,10,13,16,27,57,86,2014-10-13 16:27:57:86,
0.013318,0.131681,9.808146,-0.018854,0.004639,0.002394,0.032172,0.127042,9.805753,-0.001329,-0.002443,0.000753,2014,10,13,16,27,57,604,2014-10-13 16:27:57:604,
-0.008230,0.143652,9.887156,-0.039504,0.018555,0.081403,0.031274,0.125097,9.805753,-0.000264,-0.001377,-0.000312,2014,10,13,16,27,58,123,2014-10-13 16:27:58:123,
0.042048,0.124498,9.920674,0.015413,-0.000898,0.114922,0.026635,0.125396,9.805753,0.000776,-0.000305,-0.002441,2014,10,13,16,27,58,642,2014-10-13 16:27:58:642,
0.030077,0.124498,9.810541,-0.001496,0.001646,0.004788,0.031574,0.122852,9.805753,0.000776,0.000760,0.000755,2014,10,13,16,27,59,162,2014-10-13 16:27:59:162,
0.001347,0.148441,9.918280,-0.030526,0.026935,0.112527,0.031873,0.121506,9.805753,-0.000308,0.001830,-0.000309,2014,10,13,16,27,59,679,2014-10-13 16:27:59:679,
0.018106,0.107739,9.927856,-0.009876,-0.016011,0.122104,0.027982,0.123750,9.805753,0.001823,0.000765,0.000756,2014,10,13,16,28,0,210,2014-10-13 16:28:00:210,
0.032471,0.122104,9.868002,0.005537,0.003891,0.062100,0.026935,0.118214,9.805902,0.000820,-0.000317,-0.002444,2014,10,13,16,28,0,729,2014-10-13 16:28:00:729,
0.032471,0.110133,9.822512,0.004339,-0.005387,0.016610,0.028132,0.115520,9.805902,-0.001311,0.000748,-0.001379,2014,10,13,16,28,1,246,2014-10-13 16:28:01:246,
0.008529,0.136469,9.846454,-0.022146,0.024541,0.040552,0.030676,0.111929,9.805902,-0.001329,-0.001377,0.000753,2014,10,13,16,28,1,765,2014-10-13 16:28:01:765,
0.063596,0.134075,9.896732,0.033369,0.020051,0.090830,0.030227,0.114024,9.805902,-0.000264,0.000753,-0.012030,2014,10,13,16,28,2,283,2014-10-13 16:28:02:283,
0.044442,0.131681,9.949405,0.007781,0.016610,0.143502,0.036661,0.115071,9.805902,-0.001411,0.000775,-0.007763,2014,10,13,16,28,2,802,2014-10-13 16:28:02:802,
0.046837,0.155623,9.868002,0.008380,0.038307,0.062249,0.038457,0.117316,9.805753,0.001785,-0.002421,-0.008828,2014,10,13,16,28,3,320,2014-10-13 16:28:03:320,
0.207248,0.155623,9.937433,0.164601,0.035314,0.131681,0.042647,0.120309,9.805753,-0.000295,-0.004565,-0.121750,2014,10,13,16,28,3,841,2014-10-13 16:28:03:841,
0.054019,0.100556,9.853637,-0.017059,-0.022895,0.048034,0.071078,0.123451,9.805603,-0.001361,-0.000304,-0.001375,2014,10,13,16,28,4,358,2014-10-13 16:28:04:358,
0.054019,0.119710,9.899126,-0.017208,0.002095,0.093524,0.071227,0.117615,9.805603,-0.001386,0.001834,-0.000308,2014,10,13,16,28,4,876,2014-10-13 16:28:04:876,
0.061202,0.124498,9.961375,-0.008380,0.008679,0.155773,0.069581,0.115820,9.805603,-0.002388,-0.001379,-0.000313,2014,10,13,16,28,5,394,2014-10-13 16:28:05:394,
0.051625,0.088585,9.927856,-0.016759,-0.026785,0.122254,0.068384,0.115371,9.805603,-0.000258,-0.001379,-0.006704,2014,10,13,16,28,5,912,2014-10-13 16:28:05:912,
0.020500,0.117316,9.966164,-0.045490,0.007482,0.160412,0.065990,0.109834,9.805753,-0.001386,0.002899,-0.000308,2014,10,13,16,28,6,430,2014-10-13 16:28:06:430,
0.070779,0.138864,9.901521,0.012420,0.027833,0.095768,0.058359,0.111031,9.805753,-0.002451,-0.000297,0.000757,2014,10,13,16,28,6,949,2014-10-13 16:28:06:949,
0.077961,0.045490,9.939828,0.015413,-0.065392,0.134075,0.062549,0.110881,9.805753,-0.002382,0.000750,0.001817,2014,10,13,16,28,7,467,2014-10-13 16:28:07:467,
0.077961,0.114922,9.875184,0.011971,0.018405,0.069282,0.065990,0.096516,9.805902,-0.002382,-0.001381,0.000752,2014,10,13,16,28,7,985,2014-10-13 16:28:07:985,
0.068384,0.107739,9.958982,0.000748,0.011522,0.153079,0.067636,0.096217,9.805902,0.000795,0.000755,-0.001377,2014,10,13,16,28,8,503,2014-10-13 16:28:08:503,
0.080355,0.090980,9.896732,0.011223,-0.006434,0.090830,0.069133,0.097414,9.805902,-0.000270,-0.000310,-0.000312,2014,10,13,16,28,9,21,2014-10-13 16:28:09:21,
0.058808,0.081403,9.920674,-0.014066,-0.013168,0.114772,0.072874,0.094571,9.805902,-0.000308,-0.000300,-0.001374,2014,10,13,16,28,9,540,2014-10-13 16:28:09:540,
0.080355,0.138864,9.884761,0.009876,0.047884,0.078859,0.070479,0.090980,9.805902,-0.001373,-0.001365,-0.000309,2014,10,13,16,28,10,59,2014-10-13 16:28:10:59,
0.082750,0.098162,9.798570,0.009876,0.001945,-0.007332,0.072874,0.096217,9.805902,-0.001361,0.000762,0.001821,2014,10,13,16,28,10,576,2014-10-13 16:28:10:576,
0.082750,0.107739,9.968558,0.009726,0.014664,0.162656,0.073023,0.093075,9.805902,-0.001361,-0.001369,-0.000310,2014,10,13,16,28,11,95,2014-10-13 16:28:11:95,
0.077961,0.150835,9.884761,0.005088,0.059556,0.078859,0.072874,0.091279,9.805902,0.000776,-0.002436,-0.000311,2014,10,13,16,28,11,614,2014-10-13 16:28:11:614,
0.049231,0.114922,9.884761,-0.026486,0.017059,0.079009,0.075717,0.097863,9.805753,0.000776,-0.000305,0.000755,2014,10,13,16,28,12,133,2014-10-13 16:28:12:133,
0.082750,0.134075,9.870396,0.011522,0.036362,0.064494,0.071227,0.097713,9.805902,-0.001361,-0.003499,-0.001375,2014,10,13,16,28,12,653,2014-10-13 16:28:12:653,
0.075567,0.124498,9.930251,0.001347,0.024541,0.124498,0.074220,0.099958,9.805753,-0.001361,-0.001369,-0.000310,2014,10,13,16,28,13,171,2014-10-13 16:28:13:171,
0.111480,0.122104,9.882367,0.036960,0.020949,0.076614,0.074520,0.101155,9.805753,0.000826,-0.002449,-0.000314,2014,10,13,16,28,13,689,2014-10-13 16:28:13:689,
0.097115,0.150835,9.963770,0.017208,0.049380,0.158017,0.079906,0.101454,9.805753,-0.000239,-0.002449,-0.000314,2014,10,13,16,28,14,210,2014-10-13 16:28:14:210,
0.077961,0.146046,9.963770,-0.004339,0.039205,0.158167,0.082301,0.106841,9.805603,0.000801,0.002884,0.000753,2014,10,13,16,28,14,728,2014-10-13 16:28:14:728,
0.075567,0.105345,9.872790,-0.005836,-0.006285,0.067187,0.081403,0.111630,9.805603,-0.002394,0.000753,0.000753,2014,10,13,16,28,15,247,2014-10-13 16:28:15:247,
0.015712,0.105345,9.889549,-0.064793,-0.001646,0.083947,0.080505,0.106991,9.805603,-0.029076,-0.034387,0.008213,2014,10,13,16,28,15,766,2014-10-13 16:28:15:766,
0.113874,5.051765,8.508095,0.038756,4.948216,-1.297657,0.075118,0.103549,9.805753,-0.082339,-0.105760,-0.193122,2014,10,13,16,28,16,381,2014-10-13 16:28:16:381,
-4.064008,5.078102,-2.284966,-1.775749,-0.958130,-9.667188,-2.288258,6.036232,7.382222,4.042427,-3.628606,2.336877,2014,10,13,16,28,16,884,2014-10-13 16:28:16:884,
9.101707,12.480973,7.598299,14.055310,4.299837,9.766547,-4.953603,8.181137,-2.168249,-12.156021,10.785498,5.049043,2014,10,13,16,28,17,391,2014-10-13 16:28:17:391,
4.222324,-0.342371,8.761880,0.423026,-9.257629,7.260866,3.799299,8.915259,1.501015,-2.905265,0.462020,-1.109251,2014,10,13,16,28,17,896,2014-10-13 16:28:17:896,
1.275062,1.829170,8.603863,-2.741511,4.966772,0.225803,4.016572,-3.137601,8.378060,-0.833501,1.264211,-0.563822,2014,10,13,16,28,18,444,2014-10-13 16:28:18:444,
1.854459,6.622362,9.429863,-0.808043,3.555838,0.503680,2.662502,3.066524,8.926183,0.667457,0.597356,0.193581,2014,10,13,16,28,18,952,2014-10-13 16:28:18:952,
2.290204,-1.323994,9.566332,0.292392,-7.291392,2.045247,1.997812,5.967398,7.521085,0.217703,3.089067,0.900932,2014,10,13,16,28,19,456,2014-10-13 16:28:19:456,
5.263802,-2.461239,0.118812,1.559972,-1.756147,-8.933964,3.703830,-0.705092,9.052776,7.692663,-2.353369,-7.918392,2014,10,13,16,28,19,959,2014-10-13 16:28:19:959,
5.598990,-8.367735,3.195361,-3.295918,-12.264149,1.829469,8.894908,3.896414,1.365892,11.413589,-7.727617,6.373199,2014,10,13,16,28,20,480,2014-10-13 16:28:20:480,
5.795315,-7.283162,-15.175348,-0.516399,-7.605930,-22.673838,6.311714,0.322768,7.498490,-13.336765,3.143407,1.829846,2014,10,13,16,28,20,983,2014-10-13 16:28:20:983,
3.046771,-5.544971,10.346842,-5.307197,-5.413290,15.481358,8.353969,-0.131681,-5.134515,7.733043,-6.333170,-0.241024,2014,10,13,16,28,21,493,2014-10-13 16:28:21:493,
5.919813,-2.140416,3.789124,-1.569100,0.850989,-1.791013,7.488913,-2.991405,5.580136,-5.127894,2.609725,-2.871162,2014,10,13,16,28,21,996,2014-10-13 16:28:21:996,
5.831228,3.344700,-19.548956,-2.008735,4.429423,-25.339333,7.839963,-1.084723,5.790377,1.488463,-2.557873,-4.391294,2014,10,13,16,28,22,498,2014-10-13 16:28:22:498,
9.140015,-5.384560,11.484088,1.036839,-8.186075,16.244360,8.103176,2.801515,-4.760272,9.749589,-2.210597,3.672757,2014,10,13,16,28,23,1,2014-10-13 16:28:23:01,
-0.135123,-14.367604,18.446426,-6.404938,-12.716952,11.088895,6.269816,-1.650652,7.357532,-17.191988,3.742094,2.146231,2014,10,13,16,28,23,503,2014-10-13 16:28:23:503,
-2.378490,-19.555840,6.166566,-8.354567,-16.327408,-0.906804,5.976077,-3.228431,7.073370,-21.127077,7.049740,-1.995517,2014,10,13,16,28,24,7,2014-10-13 16:28:24:07,
6.518364,5.377377,-14.481030,0.995240,7.686734,-22.248268,5.523124,-2.309357,7.767239,-12.887343,3.510955,2.331594,2014,10,13,16,28,24,587,2014-10-13 16:28:24:587,
8.060229,-12.457031,0.018256,0.263661,-18.135180,-1.753902,7.796568,5.678149,1.772158,15.327250,2.984715,-1.688714,2014,10,13,16,28,25,90,2014-10-13 16:28:25:90,
7.028329,5.398925,-4.988020,-1.746869,4.138078,-9.180118,8.775198,1.260846,4.192098,5.707975,-5.087876,-2.350248,2014,10,13,16,28,25,593,2014-10-13 16:28:25:593,
6.317251,7.975086,1.521814,-1.746869,4.138078,-9.180118,8.775198,1.260846,4.192098,-4.152112,1.637138,-0.536103,2014,10,13,16,28,26,96,2014-10-13 16:28:26:96,
6.884676,6.931214,5.364508,0.793379,2.329858,-0.791134,6.091298,4.601357,6.155642,-1.072507,0.917040,-1.178451,2014,10,13,16,28,26,599,2014-10-13 16:28:26:599,
2.079514,8.355764,-9.465178,-4.783166,1.924788,-12.242600,6.862680,6.430975,2.777424,-9.582905,3.124268,2.589389,2014,10,13,16,28,27,108,2014-10-13 16:28:27:108,
3.384354,9.811439,-11.002254,-2.808249,2.917485,-14.210784,6.192603,6.893954,3.208529,-8.162883,1.149261,2.519079,2014,10,13,16,28,27,611,2014-10-13 16:28:27:611,
1.378013,10.544065,-7.317578,-4.548684,3.082684,-9.635015,5.926697,7.461380,2.317438,6.969199,-2.405527,-1.759022,2014,10,13,16,28,28,122,2014-10-13 16:28:28:122,
3.094655,-9.708488,14.747385,-1.681777,-17.515381,11.225215,4.776433,7.806893,3.522170,13.358561,-4.348544,-3.292996,2014,10,13,16,28,28,626,2014-10-13 16:28:28:626,
-12.620885,-11.451467,19.677046,-17.321751,-12.520179,11.137228,4.700865,1.068712,8.539818,-10.558756,3.400190,1.542239,2014,10,13,16,28,29,136,2014-10-13 16:28:29:136,
8.074594,-0.519542,-1.178845,4.123264,1.724723,-9.869049,3.951331,-2.244265,8.690204,-14.654635,3.407630,3.145458,2014,10,13,16,28,29,640,2014-10-13 16:28:29:640,
-5.692065,7.893683,-15.948675,-13.359944,1.844283,-16.830490,7.667880,6.049399,0.881814,18.966177,-8.414675,-7.864050,2014,10,13,16,28,30,142,2014-10-13 16:28:30:142,
2.594267,-8.329428,1.864185,-2.033425,-16.928652,2.761861,4.627693,8.599224,-0.897676,20.265755,-4.359201,-1.904958,2014,10,13,16,28,30,650,2014-10-13 16:28:30:650,
9.487174,-15.969325,19.677046,2.485331,-17.727568,13.039870,7.001843,1.758242,6.637176,4.081192,-4.253740,1.107610,2014,10,13,16,28,31,152,2014-10-13 16:28:31:152,
8.189517,-2.820370,-4.743812,2.539949,2.893842,-10.365098,5.649568,-5.714211,5.621286,-16.788416,5.102481,3.159310,2014,10,13,16,28,31,662,2014-10-13 16:28:31:662,
2.895936,-1.596933,-4.920982,-6.290316,-4.834192,-6.061370,9.186253,3.237260,1.140388,14.817980,-3.878764,-5.409677,2014,10,13,16,28,32,165,2014-10-13 16:28:32:165,
9.264513,-15.847221,19.677046,0.426766,-20.083761,19.338865,8.837747,4.236540,0.338181,6.791156,-5.687567,0.703880,2014,10,13,16,28,32,669,2014-10-13 16:28:32:669,
6.353164,-10.256760,-0.300173,-1.863886,-6.658125,-4.262278,8.217050,-3.598635,3.962105,-16.573288,1.275001,2.438130,2014,10,13,16,28,33,171,2014-10-13 16:28:33:171,
1.607856,11.224017,-19.548956,-7.780407,8.954165,-21.244799,9.388264,2.269853,1.695843,3.630410,0.822292,-0.446598,2014,10,13,16,28,33,674,2014-10-13 16:28:33:674,
4.758626,-11.188105,10.303746,-4.774038,-13.100473,11.584345,9.532663,1.912369,-1.280599,16.517948,-3.366319,-1.371245,2014,10,13,16,28,34,178,2014-10-13 16:28:34:178,
1.375618,-19.555840,7.397185,-7.462727,-16.950499,4.040814,8.838346,-2.605340,3.356371,-22.472822,9.510587,0.986182,2014,10,13,16,28,34,680,2014-10-13 16:28:34:680,
1.634192,4.070143,-19.548956,-7.660099,4.485836,-22.649149,9.294291,-0.415693,3.100192,1.329514,-0.163098,1.507091,2014,10,13,16,28,35,184,2014-10-13 16:28:35:184,
8.122478,5.406107,-19.548956,-0.347907,2.408118,-15.620221,8.470387,2.997989,-3.928735,17.267939,-4.314416,-2.612282,2014,10,13,16,28,35,688,2014-10-13 16:28:35:688,
7.018752,-7.532158,10.825683,-2.539649,-9.563190,11.650186,9.558401,2.031031,-0.824503,7.950226,-1.590577,-2.046638,2014,10,13,16,28,36,191,2014-10-13 16:28:36:191,
6.822427,6.574478,1.933617,-2.053477,3.005172,-0.221763,8.875904,3.569306,2.155380,-0.587621,0.407992,0.307341,2014,10,13,16,29,1,175,2014-10-13 16:29:01:175,
5.646874,8.252813,-17.545609,-3.690363,6.192902,-19.722984,9.337237,2.059911,2.177377,0.206382,0.500567,2.041563,2014,10,13,16,29,10,648,2014-10-13 16:29:10:648,
6.001216,5.085284,-19.548956,-2.659509,1.143680,-17.177500,8.660726,3.941604,-2.371457,-7.700154,3.293729,3.292194,2014,10,13,16,29,11,167,2014-10-13 16:29:11:167,
-1.401655,6.959944,-19.548956,-10.172065,3.315221,-17.106571,8.770410,3.644723,-2.442385,16.976591,-0.639199,-2.501771,2014,10,13,16,29,11,669,2014-10-13 16:29:11:669,
3.444209,8.406042,-19.548956,-5.331588,4.362834,-17.874062,8.775797,4.043208,-1.674894,19.853870,-4.198247,-2.085253,2014,10,13,16,29,12,172,2014-10-13 16:29:12:172,
4.277391,-0.871489,1.236905,-4.735731,-4.735581,1.285088,9.013122,3.864092,-0.048183,10.546417,-4.523088,-2.760612,2014,10,13,16,29,12,675,2014-10-13 16:29:12:675,
7.574207,0.797269,6.073192,-1.798644,-1.082778,3.886388,9.372850,1.880047,2.186804,-8.419551,2.697274,1.986206,2014,10,13,16,29,13,185,2014-10-13 16:29:13:185,
6.310068,7.096414,-19.548956,-2.596512,8.078036,-23.533506,8.906580,-0.981623,3.984550,-2.746196,2.372434,2.077837,2014,10,13,16,29,13,687,2014-10-13 16:29:13:687,
1.196053,-4.278439,-3.865139,-7.855974,-7.309797,-1.620276,9.052028,3.031359,-2.244863,17.209402,-7.648508,-4.678071,2014,10,13,16,29,14,190,2014-10-13 16:29:14:190,
7.425766,5.078102,-2.459743,-1.984494,2.319084,-2.526631,9.410260,2.759018,0.066888,-1.635332,0.468863,-0.067591,2014,10,13,16,29,14,702,2014-10-13 16:29:14:702,
7.851934,5.025429,-1.456572,-1.548001,2.233192,-1.575385,9.399935,2.792238,0.118812,-0.100286,0.100281,0.372363,2014,10,13,16,29,15,211,2014-10-13 16:29:15:211,
5.299715,-9.176975,12.630910,-4.196287,-11.520000,11.920880,9.496002,2.343026,0.710030,13.903531,-6.119757,-2.952316,2014,10,13,16,29,15,713,2014-10-13 16:29:15:713,
-5.850082,-14.700398,19.677046,-13.779828,-12.197560,14.478636,7.929746,-2.502839,5.198411,-13.087074,4.148327,1.815808,2014,10,13,16,29,16,224,2014-10-13 16:29:16:224,
-6.032042,-19.555840,7.737162,-13.346178,-15.119384,2.942474,7.314137,-4.436456,4.794688,-21.869240,12.251826,1.471737,2014,10,13,16,29,16,727,2014-10-13 16:29:16:727,
9.286061,1.453280,-3.489250,2.388216,4.686201,-9.664794,6.897845,-3.232920,6.175544,-12.464020,1.919827,1.278924,2014,10,13,16,29,17,230,2014-10-13 16:29:17:230,
8.409783,4.197036,2.285565,-0.818218,2.145354,-0.322469,9.228002,2.051681,2.608034,2.990743,-1.511364,-0.053715,2014,10,13,16,29,17,742,2014-10-13 16:29:17:742,
8.258948,4.127604,1.833061,-1.112256,2.805855,-0.736516,9.371204,1.321749,2.569577,0.273253,-0.103085,0.029375,2014,10,13,16,29,18,247,2014-10-13 16:29:18:247,
7.227047,3.928885,-5.612906,-2.141613,2.022951,-7.795371,9.368661,1.905934,2.182465,-13.105440,6.569742,2.607318,2014,10,13,16,29,18,756,2014-10-13 16:29:18:756,
8.184729,2.233790,0.518644,-0.932990,-1.349582,0.075866,9.117719,3.583372,0.442778,-8.162613,2.784858,1.465355,2014,10,13,16,29,19,259,2014-10-13 16:29:19:259,
9.108890,4.776433,-0.245106,0.001646,1.502661,1.339257,9.107244,3.273772,-1.584363,-0.072036,-0.002911,0.018733,2014,10,13,16,29,19,769,2014-10-13 16:29:19:769,
8.936507,4.510676,0.183456,-0.277727,1.450587,1.562516,9.214235,3.060089,-1.379060,-1.293894,1.130530,0.077323,2014,10,13,16,29,20,271,2014-10-13 16:29:20:271,
10.636391,2.032677,5.151424,1.391181,-1.184382,5.739650,9.245210,3.217059,-0.588225,-3.398994,2.009411,-0.402036,2014,10,13,16,29,20,773,2014-10-13 16:29:20:773,
1.299004,-4.355053,9.796176,-8.140884,-6.139930,7.828740,9.439888,1.784877,1.967435,-14.573619,15.439199,2.968461,2014,10,13,16,29,21,280,2014-10-13 16:29:21:280,
-2.512565,-11.166556,10.263045,-9.640403,-11.792641,3.557185,7.127838,0.626084,6.705860,-22.197777,19.308256,1.586818,2014,10,13,16,29,21,783,2014-10-13 16:29:21:783,
-5.270685,-5.683835,19.677046,-11.655423,-4.968418,12.268188,6.384737,-0.715417,7.408857,-8.369580,-1.020184,0.974291,2014,10,13,16,29,22,290,2014-10-13 16:29:22:290,
2.484134,-4.309563,11.182418,-2.779070,-4.045004,2.912097,5.263204,-0.264559,8.270321,10.578239,-5.466588,-0.577797,2014,10,13,16,29,22,794,2014-10-13 16:29:22:794,
3.621380,-6.998251,-2.170045,-1.668609,-8.186225,-10.341455,5.289989,1.187973,8.171411,21.313974,-10.644838,-1.068884,2014,10,13,16,29,23,302,2014-10-13 16:29:23:302,
4.095432,-2.070984,-7.940071,-2.662352,-1.992126,-15.046062,6.757784,-0.078859,7.105990,17.785732,-10.864259,-2.936286,2014,10,13,16,29,23,806,2014-10-13 16:29:23:806,
9.489568,2.324770,-6.640019,0.367809,-0.046238,-9.349058,9.121758,2.371008,2.709039,14.781686,-6.784297,-0.136771,2014,10,13,16,29,24,314,2014-10-13 16:29:24:314,
5.462521,3.986346,-19.548956,-3.580977,3.846884,-23.338827,9.043498,0.139462,3.789872,19.337702,-10.250635,-2.178874,2014,10,13,16,29,24,863,2014-10-13 16:29:24:863,
5.316474,8.583213,-19.548956,-4.311508,6.834249,-20.191200,9.627983,1.748964,0.642245,15.970403,-3.315763,-2.651851,2014,10,13,16,29,25,367,2014-10-13 16:29:25:367,
9.312397,5.216966,-17.911921,-0.004788,3.014599,-15.788413,9.317185,2.202366,-2.123507,19.561378,-7.140054,-1.587650,2014,10,13,16,29,25,871,2014-10-13 16:29:25:871,
9.245359,4.924873,-18.910303,-0.346860,3.016096,-18.192341,9.592219,1.908777,-0.717961,19.014898,-6.538180,-0.281636,2014,10,13,16,29,26,374,2014-10-13 16:29:26:374,
6.465691,-1.946486,3.461118,-3.125032,-3.587412,2.239327,9.590723,1.640926,1.221791,13.775746,-6.147178,-0.039807,2014,10,13,16,29,26,878,2014-10-13 16:29:26:878,
2.414702,-9.251195,9.602245,-6.426486,-8.963741,5.368997,8.841188,-0.287454,4.233248,14.398926,-7.661984,0.183898,2014,10,13,16,29,27,380,2014-10-13 16:29:27:380,
-3.551649,-16.486473,19.677046,-10.269778,-13.016676,13.432369,6.718130,-3.469797,6.244677,-10.866026,-5.487759,-2.068065,2014,10,13,16,29,27,883,2014-10-13 16:29:27:883,
9.128043,-3.066972,-8.229769,2.025794,1.340005,-13.358747,7.102250,-4.406977,5.128979,-16.948637,2.671088,1.610289,2014,10,13,16,29,28,387,2014-10-13 16:29:28:387,
6.417807,-2.940080,2.256834,-3.381062,-3.260005,2.035969,9.798869,0.319925,0.220865,11.771958,-4.470445,-1.153007,2014,10,13,16,29,28,891,2014-10-13 16:29:28:891,
2.086696,-8.671799,11.196783,-7.594109,-8.189666,9.707440,9.680805,-0.482132,1.489343,13.858937,-7.903826,-1.263804,2014,10,13,16,29,29,394,2014-10-13 16:29:29:394,
5.642086,2.367866,15.594932,-0.873435,3.276465,8.322394,6.515521,-0.908600,7.272537,3.146516,-0.628903,0.361562,2014,10,13,16,30,30,181,2014-10-13 16:30:30:181,
2.591873,2.370260,-10.193014,-6.454618,1.373075,-13.844621,9.046491,0.997185,3.651607,3.827945,0.660936,-0.376720,2014,10,13,16,30,30,695,2014-10-13 16:30:30:695,
4.890306,3.021482,11.678018,-4.105607,-0.743400,12.711864,8.995914,3.764882,-1.033846,9.342663,-3.051468,-0.418254,2014,10,13,16,30,31,197,2014-10-13 16:30:31:197,
6.037129,0.876278,-3.862745,-2.500594,-0.454300,-8.500314,8.537724,1.330578,4.637568,-11.333117,-1.196826,0.932506,2014,10,13,16,30,31,713,2014-10-13 16:30:31:713,
6.281338,5.360618,8.407538,-2.540697,1.157148,7.589320,8.822035,4.203470,0.818218,7.681740,-1.193599,0.769529,2014,10,13,16,30,32,222,2014-10-13 16:30:32:222,
4.708347,2.806004,-6.582558,-3.508852,0.176722,-11.244219,8.217199,2.629282,4.661660,-8.979183,-0.506453,0.160212,2014,10,13,16,30,32,724,2014-10-13 16:30:32:724,
8.591743,6.368577,3.360561,0.420182,0.997035,4.095282,8.171560,5.371541,-0.734721,8.583657,-0.356203,1.857191,2014,10,13,16,30,33,226,2014-10-13 16:30:33:226,
-6.831705,-7.395689,17.893366,-14.989798,-11.647641,14.497190,8.158092,4.251953,3.396175,-6.643295,5.027660,1.255321,2014,10,13,16,30,33,728,2014-10-13 16:30:33:728,
8.196699,6.679823,-8.323143,1.608904,6.170606,-15.569493,6.587796,0.509217,7.246351,4.953085,-2.040346,-2.723435,2014,10,13,16,30,34,233,2014-10-13 16:30:34:233,
3.662081,-2.056619,13.820828,-5.085883,-6.483648,13.618519,8.747964,4.427029,0.202310,11.735524,-6.339726,1.231899,2014,10,13,16,30,34,736,2014-10-13 16:30:34:736,
3.994875,2.035071,-1.796549,-3.172766,0.553210,-8.323143,7.167641,1.481861,6.526594,-14.488202,3.846363,1.710211,2014,10,13,16,30,35,245,2014-10-13 16:30:35:245,
7.224653,8.355764,-8.758887,-3.172766,0.553210,-8.323143,7.167641,1.481861,6.526594,13.576189,-7.607360,-0.352141,2014,10,13,16,30,35,747,2014-10-13 16:30:35:747,
-1.123928,4.194642,8.330924,-8.544158,-2.171391,7.567772,7.420229,6.366033,0.763152,1.804805,-0.099319,4.322255,2014,10,13,16,30,36,250,2014-10-13 16:30:36:250,
3.592649,6.818686,17.955614,-2.118420,-0.312892,21.518337,5.711069,7.131578,-3.562722,-8.790316,1.331331,0.893169,2014,10,13,16,30,36,754,2014-10-13 16:30:36:754,
-1.720084,-2.851494,-13.990218,-6.483049,-11.419444,-13.719673,4.762965,8.567950,-0.270545,-8.340980,-0.313381,0.388249,2014,10,13,16,30,37,257,2014-10-13 16:30:37:257,
7.497592,10.541670,-0.774225,-6.483049,-11.419444,-13.719673,4.762965,8.567950,-0.270545,3.876538,-0.449735,-0.409634,2014,10,13,16,30,37,760,2014-10-13 16:30:37:760,
-1.337012,-0.524330,-13.757980,-6.246771,-7.061698,-8.342446,4.909760,6.537368,-5.415534,-4.278180,-0.539185,-0.139048,2014,10,13,16,30,38,264,2014-10-13 16:30:38:264,
6.147263,10.486604,16.420931,3.213617,5.501277,24.339903,2.933645,4.985326,-7.918972,2.690780,-0.410288,-0.009086,2014,10,13,16,30,38,769,2014-10-13 16:30:38:769,
-0.932392,-0.529119,-9.651925,-5.314380,-9.029432,-7.481132,4.381988,8.500314,-2.170793,-5.967790,-0.986569,1.829568,2014,10,13,16,30,39,272,2014-10-13 16:30:39:272,
5.929390,6.880936,-9.778817,-5.314380,-9.029432,-7.481132,4.381988,8.500314,-2.170793,8.882015,-1.517076,-1.740135,2014,10,13,16,30,39,774,2014-10-13 16:30:39:774,
5.180005,8.652645,17.093702,1.845181,2.551770,24.009504,3.334824,6.100875,-6.915801,-2.113657,0.744484,0.674821,2014,10,13,16,30,45,103,2014-10-13 16:30:45:103,
4.818480,9.660604,3.180996,1.014693,0.900369,5.407604,3.803788,8.760235,-2.226608,-6.335590,-0.243226,2.673199,2014,10,13,16,30,45,611,2014-10-13 16:30:45:611,
-5.984158,-5.224148,-19.548956,-11.132440,-13.337050,-21.509657,5.148282,8.112902,1.960702,8.842204,0.725125,-2.332471,2014,10,13,16,30,46,115,2014-10-13 16:30:46:115,
3.865588,9.493010,13.971663,0.697311,0.344316,15.530888,3.168277,9.148694,-1.559224,5.146689,-0.147296,-0.017643,2014,10,13,16,30,46,623,2014-10-13 16:30:46:623,
2.754679,5.209783,1.979107,-1.635689,-1.082030,-4.128651,4.390368,6.291812,6.107758,-7.302073,-2.005095,2.554976,2014,10,13,16,30,47,125,2014-10-13 16:30:47:125,
-0.755221,0.122104,-19.548956,-4.461146,-8.675838,-21.791725,3.705925,8.797943,2.242769,3.295047,0.265019,-2.393167,2014,10,13,16,30,47,629,2014-10-13 16:30:47:629,
3.544765,10.840945,18.784008,1.640627,1.269077,19.744831,1.904139,9.571869,-0.960823,-6.031456,1.378250,0.493708,2014,10,13,16,30,48,137,2014-10-13 16:30:48:137,
2.570325,6.880936,-5.088576,-1.014393,0.249745,-11.361236,3.584718,6.631190,6.272659,5.801445,0.817937,-2.486898,2014,10,13,16,30,48,640,2014-10-13 16:30:48:640,
4.277391,10.053253,6.767510,0.920720,0.859668,6.151303,3.356671,9.193584,0.616208,-8.241998,-0.292052,2.859669,2014,10,13,16,30,49,144,2014-10-13 16:30:49:144,
3.027618,7.886500,2.680608,-0.101754,-0.942418,-0.221913,3.129371,8.828918,2.902521,7.335314,0.690135,-1.403516,2014,10,13,16,30,49,661,2014-10-13 16:30:49:661,
-3.216460,-0.081403,-10.887333,-6.252607,-8.651448,-14.562283,3.129371,8.828918,2.902521,-3.220504,-0.999344,1.436488,2014,10,13,16,30,50,164,2014-10-13 16:30:50:164,
2.754679,5.157111,-7.700651,2.111387,-4.290709,-5.152322,0.643292,9.447819,-2.548328,-1.980542,-2.181785,3.805636,2014,10,13,16,30,50,668,2014-10-13 16:30:50:668,
2.192041,8.130709,17.153557,-0.190040,-0.845303,20.304028,2.382081,8.976012,-3.150470,4.466263,-0.811808,0.270036,2014,10,13,16,30,51,172,2014-10-13 16:30:51:172,
4.107403,3.040636,-0.266654,0.495300,-4.268114,-5.716606,3.612102,7.308750,5.449951,-9.214929,-1.951641,5.338564,2014,10,13,16,30,51,676,2014-10-13 16:30:51:676,
2.390760,7.747637,5.601534,0.495300,-4.268114,-5.716606,3.612102,7.308750,5.449951,8.484346,0.072387,-0.928379,2014,10,13,16,30,52,179,2014-10-13 16:30:52:179,
1.789815,2.736573,-5.165191,-0.646584,-5.758205,-9.416245,2.436399,8.494778,4.251055,-5.405704,-1.836548,3.181416,2014,10,13,16,30,52,682,2014-10-13 16:30:52:682,
5.019594,9.265560,12.815264,1.721730,0.178817,14.465767,3.297863,9.086743,-1.650503,6.801141,-1.899394,-0.466048,2014,10,13,16,30,53,186,2014-10-13 16:30:53:186,
-1.123928,-2.451663,-8.193856,-5.606771,-9.107095,-13.831004,4.482843,6.655432,5.637148,-9.884089,-0.665819,1.262876,2014,10,13,16,30,53,689,2014-10-13 16:30:53:689,
5.443367,6.327875,-4.530727,-5.606771,-9.107095,-13.831004,4.482843,6.655432,5.637148,12.816765,-2.834716,2.094842,2014,10,13,16,30,54,193,2014-10-13 16:30:54:193,
3.456180,10.429143,6.791452,0.400281,1.572093,9.686641,3.055899,8.857050,-2.895188,5.329240,-0.358036,-0.895371,2014,10,13,16,30,55,397,2014-10-13 16:30:55:397,
1.382801,4.991910,-5.057452,-1.622221,-4.339042,-4.790947,3.005023,9.330953,-0.266505,-4.470191,-1.370020,2.164073,2014,10,13,16,30,55,900,2014-10-13 16:30:55:900,
2.809745,9.852140,1.330278,0.676961,1.368885,5.763741,2.132785,8.483255,-4.433463,4.025269,-0.137502,-1.277795,2014,10,13,16,30,56,403,2014-10-13 16:30:56:403,
-1.430386,2.398990,-7.430106,-3.855712,-6.776189,-4.959738,2.425326,9.175179,-2.470367,-5.358702,-0.838431,1.512137,2014,10,13,16,30,56,913,2014-10-13 16:30:56:913,
5.115362,10.994174,8.627805,3.757251,2.657265,13.609839,1.358111,8.336909,-4.982035,-0.313747,1.732089,-0.396807,2014,10,13,16,30,57,416,2014-10-13 16:30:57:416,
1.131410,9.174581,-2.392705,3.757251,2.657265,13.609839,1.358111,8.336909,-4.982035,-3.245355,-0.300435,0.737700,2014,10,13,16,30,57,919,2014-10-13 16:30:57:919,
2.670882,5.940014,3.271976,0.845153,-3.317915,5.941810,1.825728,9.257929,-2.669834,11.431734,-2.147570,-0.624764,2014,10,13,16,30,58,427,2014-10-13 16:30:58:427,
0.750732,7.273585,-0.745495,-2.804059,-1.031302,-4.561254,3.554791,8.304887,3.815759,2.937315,-0.562456,-2.016000,2014,10,13,16,30,58,935,2014-10-13 16:30:58:935,
-3.937115,2.106898,-3.369539,-5.351639,-7.379827,-1.327585,1.414524,9.486725,-2.041955,-3.847398,0.444230,1.505768,2014,10,13,16,30,59,443,2014-10-13 16:30:59:443,
4.693982,8.554482,-0.417489,-5.351639,-7.379827,-1.327585,1.414524,9.486725,-2.041955,-2.541384,-1.272976,4.865613,2014,10,13,16,30,59,949,2014-10-13 16:30:59:949,
2.273444,9.260772,-2.213140,-0.057162,-0.102951,-0.464625,2.330606,9.363723,-1.748515,0.083296,-0.094758,-0.170949,2014,10,13,16,31,0,452,2014-10-13 16:31:00:452,
2.347664,8.710106,-4.111742,0.024241,0.002394,-0.245555,2.323423,8.707711,-3.866187,-0.399268,-0.077714,-0.124077,2014,10,13,16,31,0,963,2014-10-13 16:31:00:963,
0.473004,7.321469,6.188114,-1.790414,-1.082478,10.706870,2.263418,8.403947,-4.518756,-11.408757,0.509242,0.451165,2014,10,13,16,31,1,466,2014-10-13 16:31:01:466,
-1.059285,3.303998,-3.896264,-1.657536,-5.888240,-7.259818,0.598251,9.192238,3.363554,15.006605,-1.867363,-1.220235,2014,10,13,16,31,1,975,2014-10-13 16:31:01:975,
-2.708889,12.064383,13.492823,-2.389713,2.356942,12.139501,-0.319177,9.707440,1.353323,-1.105576,0.678634,0.821881,2014,10,13,16,31,2,476,2014-10-13 16:31:02:476,
1.830517,-1.963245,-19.548956,2.525284,-11.288661,-22.502653,-0.694767,9.325416,2.953697,0.786334,0.616849,-2.632772,2014,10,13,16,31,2,979,2014-10-13 16:31:02:979,
-2.174983,6.758832,19.677046,-3.328389,-1.929876,24.075493,1.153407,8.688707,-4.398448,-8.509276,1.694927,0.125206,2014,10,13,16,31,3,489,2014-10-13 16:31:03:489,
-3.446304,0.268151,-11.536161,-4.725555,-7.501782,-17.380857,1.153407,8.688707,-4.398448,-2.756848,-2.080370,-0.515018,2014,10,13,16,31,3,992,2014-10-13 16:31:03:992,
4.758626,6.449979,19.677046,4.817134,-2.806453,22.915054,-0.058508,9.256433,-3.238008,-2.126243,1.250720,0.506573,2014,10,13,16,31,4,502,2014-10-13 16:31:04:502,
10.097695,6.215348,-8.095694,8.095244,-2.524087,-12.068123,2.002450,8.739435,3.972430,9.734411,-1.741608,-3.758746,2014,10,13,16,31,5,5,2014-10-13 16:31:05:05,
7.760954,5.863400,18.470367,1.309329,-1.496526,17.856705,6.451625,7.359926,0.613664,-8.283490,0.305836,3.707694,2014,10,13,16,31,5,508,2014-10-13 16:31:05:508,
6.360346,8.595184,-4.396652,1.309329,-1.496526,17.856705,6.451625,7.359926,0.613664,4.188626,1.111175,-2.640217,2014,10,13,16,31,6,12,2014-10-13 16:31:06:12,
-2.265962,-0.275333,-7.042245,-6.213402,-8.668357,-3.857358,3.947440,8.393023,-3.184887,-5.896332,-1.106678,3.187852,2014,10,13,16,31,6,515,2014-10-13 16:31:06:515,
7.789685,6.016629,19.677046,6.603807,-1.882291,25.366568,1.185878,7.898921,-5.689521,2.579845,0.351705,0.405391,2014,10,13,16,31,7,18,2014-10-13 16:31:07:18,
-8.871565,-3.617639,-19.548956,-13.048998,-12.153267,-21.969494,4.177433,8.535628,2.420538,5.268541,-0.475997,-3.880165,2014,10,13,16,31,7,521,2014-10-13 16:31:07:521,
4.614974,3.253720,19.677046,4.397550,-2.980332,27.244070,4.177433,8.535628,2.420538,-8.019586,1.112317,1.468529,2014,10,13,16,31,8,25,2014-10-13 16:31:08:25,
8.685117,8.288726,0.600047,5.578789,-0.420482,-2.666093,3.106327,8.709208,3.266140,9.584962,-0.627256,-2.312093,2014,10,13,16,31,8,528,2014-10-13 16:31:08:528,
-2.392855,-3.165135,-12.613552,-6.482301,-11.756577,-10.240150,4.089446,8.591443,-2.373402,-5.013366,-1.313302,2.770279,2014,10,13,16,31,9,32,2014-10-13 16:31:09:32,
3.714754,9.856929,19.677046,3.609409,5.117906,28.261906,0.105345,4.739023,-8.584859,-14.192762,3.071330,0.540681,2014,10,13,16,31,9,535,2014-10-13 16:31:09:535,
4.844817,8.662222,-2.062305,4.120720,-0.994043,-0.512808,0.105345,4.739023,-8.584859,7.571756,0.823595,-1.160553,2014,10,13,16,31,10,41,2014-10-13 16:31:10:41,
0.719607,2.813187,10.176853,3.242797,-6.303035,12.764836,-2.523189,9.116222,-2.587982,-0.029187,0.004971,0.001513,2014,10,13,16,31,21,828,2014-10-13 16:31:21:828,
0.130634,2.190695,9.513659,2.503437,-7.281066,10.421960,-2.523189,9.116222,-2.587982,0.086833,-0.023766,0.072893,2014,10,13,16,31,22,331,2014-10-13 16:31:22:331,
-0.214131,1.589750,9.812935,2.152088,-7.907599,9.203161,-2.366220,9.497349,0.609773,-0.069842,-0.183533,-0.269051,2014,10,13,16,31,22,834,2014-10-13 16:31:22:834,
0.271892,1.544260,9.748292,2.315492,-7.728034,7.295432,-2.043601,9.272294,2.452860,0.046216,0.082798,0.042010,2014,10,13,16,31,23,373,2014-10-13 16:31:23:373,
1.684471,1.960851,7.871237,3.473238,-6.831106,3.912724,-1.788768,8.791958,3.958513,-0.020006,-0.321955,0.037762,2014,10,13,16,31,23,876,2014-10-13 16:31:23:876,
0.470610,0.581791,9.326912,1.932719,-7.930644,4.682610,-1.462109,8.512435,4.644302,-1.098197,-0.043882,-0.347853,2014,10,13,16,31,24,390,2014-10-13 16:31:24:390,
0.279074,1.759738,9.568727,1.476025,-6.071845,3.789273,-1.196951,7.831583,5.779453,0.007460,0.001948,0.040975,2014,10,13,16,31,24,919,2014-10-13 16:31:24:919,
-0.063297,1.271321,10.037990,0.972046,-6.061370,3.609259,-1.035343,7.332692,6.428731,-0.135342,0.014746,0.068676,2014,10,13,16,31,25,500,2014-10-13 16:31:25:500,
-0.092027,1.268927,9.681253,0.822259,-5.255123,2.417096,-0.914286,6.524050,7.264158,-0.013086,-0.022470,-0.045289,2014,10,13,16,31,26,4,2014-10-13 16:31:26:04,
0.085144,1.393425,9.779416,1.007660,-4.355502,1.888427,-0.922516,5.748927,7.890989,0.016673,0.002049,0.036742,2014,10,13,16,31,26,509,2014-10-13 16:31:26:509,
0.142605,1.072602,9.468170,0.893486,-4.105607,1.174206,-0.750881,5.178209,8.293963,-0.290224,-0.400593,-0.250872,2014,10,13,16,31,27,61,2014-10-13 16:31:27:61,
-0.036960,1.333570,9.638158,0.523133,-3.279458,1.002422,-0.560094,4.613028,8.635736,-0.006969,-0.011743,-0.003723,2014,10,13,16,31,27,587,2014-10-13 16:31:27:587,
0.214431,1.340753,9.824906,0.755071,-2.829049,0.965462,-0.540641,4.169802,8.859444,0.081398,0.078818,0.058066,2014,10,13,16,31,28,89,2014-10-13 16:31:28:89,
0.118663,1.441309,9.733926,0.427365,-2.341380,0.691625,-0.308702,3.782689,9.042301,0.030103,-0.023404,0.008011,2014,10,13,16,31,28,592,2014-10-13 16:31:28:592,
-0.163853,1.156399,9.738714,0.092027,-2.376694,0.594361,-0.255880,3.533093,9.144354,-0.275735,0.013909,-0.027135,2014,10,13,16,31,29,107,2014-10-13 16:31:29:107,
-0.013018,1.422156,9.786599,0.249596,-1.508347,0.431854,-0.262614,2.930503,9.354745,-0.034013,-0.009501,0.003764,2014,10,13,16,31,29,611,2014-10-13 16:31:29:611,
0.037260,1.407791,9.729137,0.267103,-1.281496,0.301370,-0.229843,2.689287,9.427768,-0.009606,0.010764,0.015489,2014,10,13,16,31,30,114,2014-10-13 16:31:30:114,
0.877625,0.447716,10.887932,1.058387,-2.068740,1.411532,-0.180762,2.516456,9.476400,-0.006448,0.081082,0.216827,2014,10,13,16,31,30,617,2014-10-13 16:31:30:617,
1.389984,2.152387,9.908703,0.769736,0.649727,0.237774,0.620248,1.502661,9.670929,0.089320,-0.821168,-0.535242,2014,10,13,16,31,31,120,2014-10-13 16:31:31:120,
-0.075268,1.905785,9.516054,-1.874510,-0.595109,0.206051,1.799243,2.500893,9.310003,0.141393,0.186606,0.168907,2014,10,13,16,31,31,623,2014-10-13 16:31:31:623,
-0.281169,1.704672,9.753080,-0.058359,-0.701351,0.248847,-0.222810,2.406023,9.504232,0.012508,-0.007275,-0.002602,2014,10,13,16,31,32,126,2014-10-13 16:31:32:126,
