ACCELERATION X,ACCELERATION Y,ACCELERATION Z,LINEAR_ACCELERATION X,LINEAR_ACCELERATION Y,LINEAR_ACCELERATION Z,GRAVITY X,GRAVITY Y,GRAVITY Z,GYROSCOPE X,GYROSCOPE Y,GYROSCOPE Z,Year,Month,Day,Hour,Minute,Second,Millisecond,Date
0.389806,3.381211,9.254936,0.353893,3.241151,-0.550517,0.035913,0.140061,9.805453,0.315152,0.160855,0.421279,2014,10,7,14,7,5,0,2014-10-07 14:07:05:891
13.833248,-19.521723,-0.333842,0.353893,3.241151,-0.550517,0.035913,0.140061,9.805453,0.315152,0.160855,0.421279,2014,10,7,14,7,5,0,2014-10-07 14:07:05:895
13.833248,-19.521723,-0.333842,13.797336,-19.661783,-10.139295,0.035913,0.140061,9.805453,0.315152,0.160855,0.421279,2014,10,7,14,7,5,0,2014-10-07 14:07:05:897
13.797336,-19.661783,-10.139295,13.797336,-19.661783,-10.139295,0.035913,0.140061,9.805453,0.315152,0.160855,0.421279,2014,10,7,14,7,5,0,2014-10-07 14:07:05:900
13.797336,-19.661783,-10.139295,13.797336,-19.661783,-10.139295,0.035913,0.140061,9.805453,0.424874,-2.848517,7.430719,2014,10,7,14,7,6,0,2014-10-07 14:07:06:391
3.787178,-19.521723,5.766584,13.797336,-19.661783,-10.139295,0.035913,0.140061,9.805453,0.424874,-2.848517,7.430719,2014,10,7,14,7,6,0,2014-10-07 14:07:06:393
3.787178,-19.521723,5.766584,3.659388,-10.749966,1.383549,0.035913,0.140061,9.805453,0.424874,-2.848517,7.430719,2014,10,7,14,7,6,0,2014-10-07 14:07:06:396
3.659388,-10.749966,1.383549,3.659388,-10.749966,1.383549,0.127791,-8.771756,4.383035,0.424874,-2.848517,7.430719,2014,10,7,14,7,6,0,2014-10-07 14:07:06:398
3.659388,-10.749966,1.383549,3.659388,-10.749966,1.383549,0.127791,-8.771756,4.383035,-0.446512,0.532632,-7.291235,2014,10,7,14,7,6,0,2014-10-07 14:07:06:891
9.928306,-9.336788,2.259079,3.659388,-10.749966,1.383549,0.127791,-8.771756,4.383035,-0.446512,0.532632,-7.291235,2014,10,7,14,7,6,0,2014-10-07 14:07:06:893
9.928306,-9.336788,2.259079,2.930503,-4.111443,-2.201468,0.127791,-8.771756,4.383035,-0.446512,0.532632,-7.291235,2014,10,7,14,7,6,0,2014-10-07 14:07:06:895
2.930503,-4.111443,-2.201468,2.930503,-4.111443,-2.201468,6.997803,-5.225345,4.460547,-0.446512,0.532632,-7.291235,2014,10,7,14,7,6,0,2014-10-07 14:07:06:897
2.930503,-4.111443,-2.201468,2.930503,-4.111443,-2.201468,6.997803,-5.225345,4.460547,3.410810,-0.656203,6.418718,2014,10,7,14,7,7,0,2014-10-07 14:07:07:386
-3.479224,-19.069218,-4.557213,2.930503,-4.111443,-2.201468,6.997803,-5.225345,4.460547,3.410810,-0.656203,6.418718,2014,10,7,14,7,7,0,2014-10-07 14:07:07:388
-3.479224,-19.069218,-4.557213,2.946364,-14.950294,-10.714951,6.997803,-5.225345,4.460547,3.410810,-0.656203,6.418718,2014,10,7,14,7,7,0,2014-10-07 14:07:07:390
2.946364,-14.950294,-10.714951,2.946364,-14.950294,-10.714951,-6.425589,-4.118925,6.157737,3.410810,-0.656203,6.418718,2014,10,7,14,7,7,0,2014-10-07 14:07:07:394
2.946364,-14.950294,-10.714951,2.946364,-14.950294,-10.714951,-6.425589,-4.118925,6.157737,-0.332529,4.137487,-4.728209,2014,10,7,14,7,7,0,2014-10-07 14:07:07:890
10.000132,-9.631275,-3.008165,2.946364,-14.950294,-10.714951,-6.425589,-4.118925,6.157737,-0.332529,4.137487,-4.728209,2014,10,7,14,7,7,0,2014-10-07 14:07:07:892
10.000132,-9.631275,-3.008165,2.519149,-5.151275,-7.495347,-6.425589,-4.118925,6.157737,-0.332529,4.137487,-4.728209,2014,10,7,14,7,7,0,2014-10-07 14:07:07:894
2.519149,-5.151275,-7.495347,2.519149,-5.151275,-7.495347,7.480982,-4.480000,4.487183,-0.332529,4.137487,-4.728209,2014,10,7,14,7,7,0,2014-10-07 14:07:07:897
2.519149,-5.151275,-7.495347,2.519149,-5.151275,-7.495347,7.480982,-4.480000,4.487183,4.777545,-0.925715,6.146010,2014,10,7,14,7,8,0,2014-10-07 14:07:08:389
1.251719,-14.979921,3.738696,2.519149,-5.151275,-7.495347,7.480982,-4.480000,4.487183,4.777545,-0.925715,6.146010,2014,10,7,14,7,8,0,2014-10-07 14:07:08:391
1.251719,-14.979921,3.738696,6.179135,-10.224737,-3.281104,7.480982,-4.480000,4.487183,4.777545,-0.925715,6.146010,2014,10,7,14,7,8,0,2014-10-07 14:07:08:393
6.179135,-10.224737,-3.281104,6.179135,-10.224737,-3.281104,-4.927417,-4.755184,7.019799,4.777545,-0.925715,6.146010,2014,10,7,14,7,8,0,2014-10-07 14:07:08:395
6.179135,-10.224737,-3.281104,6.179135,-10.224737,-3.281104,-4.927417,-4.755184,7.019799,-1.117629,1.128115,-6.762864,2014,10,7,14,7,8,0,2014-10-07 14:07:08:888
17.637634,-18.501793,-7.281815,6.179135,-10.224737,-3.281104,-4.927417,-4.755184,7.019799,-1.117629,1.128115,-6.762864,2014,10,7,14,7,8,0,2014-10-07 14:07:08:890
17.637634,-18.501793,-7.281815,10.998065,-18.366669,-14.497490,-4.927417,-4.755184,7.019799,-1.117629,1.128115,-6.762864,2014,10,7,14,7,8,0,2014-10-07 14:07:08:894
10.998065,-18.366669,-14.497490,10.998065,-18.366669,-14.497490,6.639570,-0.135123,7.215675,-1.117629,1.128115,-6.762864,2014,10,7,14,7,8,0,2014-10-07 14:07:08:896
10.998065,-18.366669,-14.497490,10.998065,-18.366669,-14.497490,6.639570,-0.135123,7.215675,3.393870,-1.769248,9.764450,2014,10,7,14,7,9,0,2014-10-07 14:07:09:390
10.244340,-19.521723,4.825663,10.998065,-18.366669,-14.497490,6.639570,-0.135123,7.215675,3.393870,-1.769248,9.764450,2014,10,7,14,7,9,0,2014-10-07 14:07:09:392
10.244340,-19.521723,4.825663,13.017125,-12.736854,-1.689558,6.639570,-0.135123,7.215675,3.393870,-1.769248,9.764450,2014,10,7,14,7,9,0,2014-10-07 14:07:09:394
13.017125,-12.736854,-1.689558,13.017125,-12.736854,-1.689558,-2.772785,-6.784868,6.515222,3.393870,-1.769248,9.764450,2014,10,7,14,7,9,0,2014-10-07 14:07:09:396
13.017125,-12.736854,-1.689558,13.017125,-12.736854,-1.689558,-2.772785,-6.784868,6.515222,-1.980348,1.601237,-8.277936,2014,10,7,14,7,9,0,2014-10-07 14:07:09:889
19.588310,-19.521723,-6.575525,13.017125,-12.736854,-1.689558,-2.772785,-6.784868,6.515222,-1.980348,1.601237,-8.277936,2014,10,7,14,7,9,0,2014-10-07 14:07:09:891
19.588310,-19.521723,-6.575525,11.955895,-16.170288,-11.741015,-2.772785,-6.784868,6.515222,-1.980348,1.601237,-8.277936,2014,10,7,14,7,9,0,2014-10-07 14:07:09:893
11.955895,-16.170288,-11.741015,11.955895,-16.170288,-11.741015,7.632416,-3.351434,5.165490,-1.980348,1.601237,-8.277936,2014,10,7,14,7,9,0,2014-10-07 14:07:09:923
11.955895,-16.170288,-11.741015,11.955895,-16.170288,-11.741015,7.632416,-3.351434,5.165490,3.940368,-2.183641,9.031548,2014,10,7,14,7,10,0,2014-10-07 14:07:10:390
11.451017,-19.521723,0.188094,11.955895,-16.170288,-11.741015,7.632416,-3.351434,5.165490,3.940368,-2.183641,9.031548,2014,10,7,14,7,10,0,2014-10-07 14:07:10:392
11.451017,-19.521723,0.188094,11.076026,-11.509826,-5.454441,7.632416,-3.351434,5.165490,3.940368,-2.183641,9.031548,2014,10,7,14,7,10,0,2014-10-07 14:07:10:395
11.076026,-11.509826,-5.454441,11.076026,-11.509826,-5.454441,0.374992,-8.011897,5.642535,3.940368,-2.183641,9.031548,2014,10,7,14,7,10,0,2014-10-07 14:07:10:397
11.076026,-11.509826,-5.454441,11.076026,-11.509826,-5.454441,0.374992,-8.011897,5.642535,3.009356,4.070518,-8.427073,2014,10,7,14,7,10,0,2014-10-07 14:07:10:888
19.588310,-19.521723,-6.762273,11.076026,-11.509826,-5.454441,0.374992,-8.011897,5.642535,3.009356,4.070518,-8.427073,2014,10,7,14,7,10,0,2014-10-07 14:07:10:892
19.588310,-19.521723,-6.762273,15.922788,-12.258014,-12.237064,0.374992,-8.011897,5.642535,3.009356,4.070518,-8.427073,2014,10,7,14,7,10,0,2014-10-07 14:07:10:894
15.922788,-12.258014,-12.237064,15.922788,-12.258014,-12.237064,3.665523,-7.263709,5.474791,3.009356,4.070518,-8.427073,2014,10,7,14,7,10,0,2014-10-07 14:07:10:896
15.922788,-12.258014,-12.237064,15.922788,-12.258014,-12.237064,3.665523,-7.263709,5.474791,4.219526,-5.800230,8.782271,2014,10,7,14,7,11,0,2014-10-07 14:07:11:388
12.585870,-19.521723,-2.213290,15.922788,-12.258014,-12.237064,3.665523,-7.263709,5.474791,4.219526,-5.800230,8.782271,2014,10,7,14,7,11,0,2014-10-07 14:07:11:390
12.585870,-19.521723,-2.213290,13.284678,-10.106823,-4.866963,3.665523,-7.263709,5.474791,4.219526,-5.800230,8.782271,2014,10,7,14,7,11,0,2014-10-07 14:07:11:392
13.284678,-10.106823,-4.866963,13.284678,-10.106823,-4.866963,-0.698808,-9.414899,2.653673,4.219526,-5.800230,8.782271,2014,10,7,14,7,11,0,2014-10-07 14:07:11:401
13.284678,-10.106823,-4.866963,13.284678,-10.106823,-4.866963,-0.698808,-9.414899,2.653673,-0.345126,3.218297,-8.818028,2014,10,7,14,7,11,0,2014-10-07 14:07:11:889
19.588310,-19.521723,-1.267580,13.284678,-10.106823,-4.866963,-0.698808,-9.414899,2.653673,-0.345126,3.218297,-8.818028,2014,10,7,14,7,11,0,2014-10-07 14:07:11:893
19.588310,-19.521723,-1.267580,15.363592,-11.796980,-5.586122,-0.698808,-9.414899,2.653673,-0.345126,3.218297,-8.818028,2014,10,7,14,7,11,0,2014-10-07 14:07:11:895
15.363592,-11.796980,-5.586122,15.363592,-11.796980,-5.586122,4.224719,-7.724742,4.318542,-0.345126,3.218297,-8.818028,2014,10,7,14,7,11,0,2014-10-07 14:07:11:897
15.363592,-11.796980,-5.586122,15.363592,-11.796980,-5.586122,4.224719,-7.724742,4.318542,3.825325,-3.843324,8.536200,2014,10,7,14,7,12,0,2014-10-07 14:07:12:388
1.886182,-19.521723,0.626233,15.363592,-11.796980,-5.586122,4.224719,-7.724742,4.318542,3.825325,-3.843324,8.536200,2014,10,7,14,7,12,0,2014-10-07 14:07:12:391
1.886182,-19.521723,0.626233,1.750760,-10.000431,-1.718738,4.224719,-7.724742,4.318542,3.825325,-3.843324,8.536200,2014,10,7,14,7,12,0,2014-10-07 14:07:12:393
1.750760,-10.000431,-1.718738,1.750760,-10.000431,-1.718738,0.135422,-9.521291,2.344971,3.825325,-3.843324,8.536200,2014,10,7,14,7,12,0,2014-10-07 14:07:12:395
1.750760,-10.000431,-1.718738,1.750760,-10.000431,-1.718738,0.135422,-9.521291,2.344971,-1.329472,1.096302,-6.749281,2014,10,7,14,7,12,0,2014-10-07 14:07:12:889
13.601011,-19.521723,0.283863,1.750760,-10.000431,-1.718738,0.135422,-9.521291,2.344971,-1.329472,1.096302,-6.749281,2014,10,7,14,7,12,0,2014-10-07 14:07:12:892
13.601011,-19.521723,0.283863,8.886678,-11.172692,-1.775301,0.135422,-9.521291,2.344971,-1.329472,1.096302,-6.749281,2014,10,7,14,7,12,0,2014-10-07 14:07:12:894
8.886678,-11.172692,-1.775301,8.886678,-11.172692,-1.775301,4.714333,-8.349030,2.059163,-1.329472,1.096302,-6.749281,2014,10,7,14,7,12,0,2014-10-07 14:07:12:896
8.886678,-11.172692,-1.775301,8.886678,-11.172692,-1.775301,4.714333,-8.349030,2.059163,1.509529,-3.353327,7.327116,2014,10,7,14,7,13,0,2014-10-07 14:07:13:388
1.811962,-19.521723,5.663634,8.886678,-11.172692,-1.775301,4.714333,-8.349030,2.059163,1.509529,-3.353327,7.327116,2014,10,7,14,7,13,0,2014-10-07 14:07:13:390
1.811962,-19.521723,5.663634,3.816956,-10.593744,2.136077,4.714333,-8.349030,2.059163,1.509529,-3.353327,7.327116,2014,10,7,14,7,13,0,2014-10-07 14:07:13:391
3.816956,-10.593744,2.136077,3.816956,-10.593744,2.136077,-2.004994,-8.927979,3.527557,1.509529,-3.353327,7.327116,2014,10,7,14,7,13,0,2014-10-07 14:07:13:398
3.816956,-10.593744,2.136077,3.816956,-10.593744,2.136077,-2.004994,-8.927979,3.527557,-0.486759,0.105582,-6.788703,2014,10,7,14,7,13,0,2014-10-07 14:07:13:888
9.667337,-18.858528,-5.562778,3.816956,-10.593744,2.136077,-2.004994,-8.927979,3.527557,-0.486759,0.105582,-6.788703,2014,10,7,14,7,13,0,2014-10-07 14:07:13:890
9.667337,-18.858528,-5.562778,4.899135,-10.771962,-8.398860,-2.004994,-8.927979,3.527557,-0.486759,0.105582,-6.788703,2014,10,7,14,7,13,0,2014-10-07 14:07:13:891
4.899135,-10.771962,-8.398860,4.899135,-10.771962,-8.398860,4.768202,-8.086566,2.836082,-0.486759,0.105582,-6.788703,2014,10,7,14,7,13,0,2014-10-07 14:07:13:896
4.899135,-10.771962,-8.398860,4.899135,-10.771962,-8.398860,4.768202,-8.086566,2.836082,4.621184,-2.497924,6.896749,2014,10,7,14,7,14,0,2014-10-07 14:07:14:389
4.115184,-19.521723,-8.438214,4.899135,-10.771962,-8.398860,4.768202,-8.086566,2.836082,4.621184,-2.497924,6.896749,2014,10,7,14,7,14,0,2014-10-07 14:07:14:391
4.115184,-19.521723,-8.438214,4.696825,-10.606314,-12.481422,4.768202,-8.086566,2.836082,4.621184,-2.497924,6.896749,2014,10,7,14,7,14,0,2014-10-07 14:07:14:392
4.696825,-10.606314,-12.481422,4.696825,-10.606314,-12.481422,-0.581641,-8.915408,4.043208,4.621184,-2.497924,6.896749,2014,10,7,14,7,14,0,2014-10-07 14:07:14:400
4.696825,-10.606314,-12.481422,4.696825,-10.606314,-12.481422,-0.581641,-8.915408,4.043208,-1.788536,2.161549,-5.829963,2014,10,7,14,7,14,0,2014-10-07 14:07:14:888
6.475867,-18.180969,-17.919252,4.696825,-10.606314,-12.481422,-0.581641,-8.915408,4.043208,-1.788536,2.161549,-5.829963,2014,10,7,14,7,14,0,2014-10-07 14:07:14:890
6.475867,-18.180969,-17.919252,0.585831,-10.407146,-16.896780,-0.581641,-8.915408,4.043208,-1.788536,2.161549,-5.829963,2014,10,7,14,7,14,0,2014-10-07 14:07:14:892
0.585831,-10.407146,-16.896780,0.585831,-10.407146,-16.896780,5.890036,-7.773823,-1.022474,-1.788536,2.161549,-5.829963,2014,10,7,14,7,14,0,2014-10-07 14:07:14:899
0.585831,-10.407146,-16.896780,0.585831,-10.407146,-16.896780,5.890036,-7.773823,-1.022474,5.777001,-7.558998,4.426400,2014,10,7,14,7,15,0,2014-10-07 14:07:15:389
9.368062,-19.521723,-9.819669,0.585831,-10.407146,-16.896780,5.890036,-7.773823,-1.022474,5.777001,-7.558998,4.426400,2014,10,7,14,7,15,0,2014-10-07 14:07:15:391
9.368062,-19.521723,-9.819669,9.421932,-10.204087,-6.761824,5.890036,-7.773823,-1.022474,5.777001,-7.558998,4.426400,2014,10,7,14,7,15,0,2014-10-07 14:07:15:393
9.421932,-10.204087,-6.761824,9.421932,-10.204087,-6.761824,-0.053870,-9.317635,-3.057844,5.777001,-7.558998,4.426400,2014,10,7,14,7,15,0,2014-10-07 14:07:15:397
9.421932,-10.204087,-6.761824,9.421932,-10.204087,-6.761824,-0.053870,-9.317635,-3.057844,-3.315031,4.187673,-4.057366,2014,10,7,14,7,15,0,2014-10-07 14:07:15:886
-4.851101,-19.521723,-18.290354,9.421932,-10.204087,-6.761824,-0.053870,-9.317635,-3.057844,-3.315031,4.187673,-4.057366,2014,10,7,14,7,15,0,2014-10-07 14:07:15:888
-4.851101,-19.521723,-18.290354,-0.709731,-10.975619,-15.843929,-0.053870,-9.317635,-3.057844,-3.315031,4.187673,-4.057366,2014,10,7,14,7,15,0,2014-10-07 14:07:15:891
-0.709731,-10.975619,-15.843929,-0.709731,-10.975619,-15.843929,-4.141370,-8.546103,-2.446425,-3.315031,4.187673,-4.057366,2014,10,7,14,7,15,0,2014-10-07 14:07:15:893
-0.709731,-10.975619,-15.843929,-0.709731,-10.975619,-15.843929,-4.141370,-8.546103,-2.446425,-3.525853,-4.167223,0.807689,2014,10,7,14,7,16,0,2014-10-07 14:07:16:387
1.993921,1.130662,0.010924,-0.709731,-10.975619,-15.843929,-4.141370,-8.546103,-2.446425,-3.525853,-4.167223,0.807689,2014,10,7,14,7,16,0,2014-10-07 14:07:16:389
1.993921,1.130662,0.010924,-2.661754,9.327211,2.715025,-4.141370,-8.546103,-2.446425,-3.525853,-4.167223,0.807689,2014,10,7,14,7,16,0,2014-10-07 14:07:16:391
-2.661754,9.327211,2.715025,-2.661754,9.327211,2.715025,4.655675,-8.196549,-2.704101,-3.525853,-4.167223,0.807689,2014,10,7,14,7,16,0,2014-10-07 14:07:16:398
-2.661754,9.327211,2.715025,-2.661754,9.327211,2.715025,4.655675,-8.196549,-2.704101,-0.831864,1.664052,-3.440581,2014,10,7,14,7,16,0,2014-10-07 14:07:16:889
-6.764069,-1.960253,2.074725,-2.661754,9.327211,2.715025,4.655675,-8.196549,-2.704101,-0.831864,1.664052,-3.440581,2014,10,7,14,7,16,0,2014-10-07 14:07:16:892
-6.764069,-1.960253,2.074725,1.004068,1.438616,-2.852392,4.655675,-8.196549,-2.704101,-0.831864,1.664052,-3.440581,2014,10,7,14,7,16,0,2014-10-07 14:07:16:894
1.004068,1.438616,-2.852392,1.004068,1.438616,-2.852392,-7.768137,-3.398869,4.927117,-0.831864,1.664052,-3.440581,2014,10,7,14,7,16,0,2014-10-07 14:07:16:896
1.004068,1.438616,-2.852392,1.004068,1.438616,-2.852392,-7.768137,-3.398869,4.927117,-0.634707,-1.396475,2.858321,2014,10,7,14,7,17,0,2014-10-07 14:07:17:387
4.524592,-1.953070,0.844106,1.004068,1.438616,-2.852392,-7.768137,-3.398869,4.927117,-0.634707,-1.396475,2.858321,2014,10,7,14,7,17,0,2014-10-07 14:07:17:389
4.524592,-1.953070,0.844106,-3.370587,2.993351,-2.216582,-7.768137,-3.398869,4.927117,-0.634707,-1.396475,2.858321,2014,10,7,14,7,17,0,2014-10-07 14:07:17:392
-3.370587,2.993351,-2.216582,-3.370587,2.993351,-2.216582,7.895179,-4.946421,3.060688,-0.634707,-1.396475,2.858321,2014,10,7,14,7,17,0,2014-10-07 14:07:17:394
-3.370587,2.993351,-2.216582,-3.370587,2.993351,-2.216582,7.895179,-4.946421,3.060688,0.464604,0.828874,2.677230,2014,10,7,14,7,17,0,2014-10-07 14:07:17:889
-5.066580,-12.614450,-0.834230,-3.370587,2.993351,-2.216582,7.895179,-4.946421,3.060688,0.464604,0.828874,2.677230,2014,10,7,14,7,17,0,2014-10-07 14:07:17:891
-5.066580,-12.614450,-0.834230,-0.302867,-8.569297,-8.391527,7.895179,-4.946421,3.060688,0.464604,0.828874,2.677230,2014,10,7,14,7,17,0,2014-10-07 14:07:17:892
-0.302867,-8.569297,-8.391527,-0.302867,-8.569297,-8.391527,-4.763713,-4.045154,7.557298,0.464604,0.828874,2.677230,2014,10,7,14,7,17,0,2014-10-07 14:07:17:901
-0.302867,-8.569297,-8.391527,-0.302867,-8.569297,-8.391527,-4.763713,-4.045154,7.557298,-1.884280,1.732211,-2.453086,2014,10,7,14,7,18,0,2014-10-07 14:07:18:389
4.452766,-14.824298,-3.192518,-0.302867,-8.569297,-8.391527,-4.763713,-4.045154,7.557298,-1.884280,1.732211,-2.453086,2014,10,7,14,7,18,0,2014-10-07 14:07:18:391
4.452766,-14.824298,-3.192518,-0.769437,-7.441329,-6.985832,-4.763713,-4.045154,7.557298,-1.884280,1.732211,-2.453086,2014,10,7,14,7,18,0,2014-10-07 14:07:18:392
-0.769437,-7.441329,-6.985832,-0.769437,-7.441329,-6.985832,5.222203,-7.382970,3.793313,-1.884280,1.732211,-2.453086,2014,10,7,14,7,18,0,2014-10-07 14:07:18:394
-0.769437,-7.441329,-6.985832,-0.769437,-7.441329,-6.985832,5.222203,-7.382970,3.793313,2.593079,-3.437532,4.672464,2014,10,7,14,7,18,0,2014-10-07 14:07:18:888
9.777471,-19.521723,-7.456592,-0.769437,-7.441329,-6.985832,5.222203,-7.382970,3.793313,2.593079,-3.437532,4.672464,2014,10,7,14,7,18,0,2014-10-07 14:07:18:890
9.777471,-19.521723,-7.456592,14.671219,-12.420520,-12.125285,5.222203,-7.382970,3.793313,2.593079,-3.437532,4.672464,2014,10,7,14,7,18,0,2014-10-07 14:07:18:894
14.671219,-12.420520,-12.125285,14.671219,-12.420520,-12.125285,-4.893748,-7.101202,4.668694,2.593079,-3.437532,4.672464,2014,10,7,14,7,18,0,2014-10-07 14:07:18:896
14.671219,-12.420520,-12.125285,14.671219,-12.420520,-12.125285,-4.893748,-7.101202,4.668694,-0.696451,4.866203,-7.863568,2014,10,7,14,7,19,0,2014-10-07 14:07:19:389
12.901904,-19.521723,2.084302,14.671219,-12.420520,-12.125285,-4.893748,-7.101202,4.668694,-0.696451,4.866203,-7.863568,2014,10,7,14,7,19,0,2014-10-07 14:07:19:391
12.901904,-19.521723,2.084302,9.722255,-10.919805,-1.389684,-4.893748,-7.101202,4.668694,-0.696451,4.866203,-7.863568,2014,10,7,14,7,19,0,2014-10-07 14:07:19:393
9.722255,-10.919805,-1.389684,9.722255,-10.919805,-1.389684,3.179650,-8.601918,3.473987,-0.696451,4.866203,-7.863568,2014,10,7,14,7,19,0,2014-10-07 14:07:19:398
9.722255,-10.919805,-1.389684,9.722255,-10.919805,-1.389684,3.179650,-8.601918,3.473987,11.591350,-6.514010,1.761098,2014,10,7,14,7,19,0,2014-10-07 14:07:19:887
6.921188,-0.183755,2.249502,9.722255,-10.919805,-1.389684,3.179650,-8.601918,3.473987,11.591350,-6.514010,1.761098,2014,10,7,14,7,19,0,2014-10-07 14:07:19:889
6.921188,-0.183755,2.249502,3.188628,8.644565,0.175525,3.179650,-8.601918,3.473987,11.591350,-6.514010,1.761098,2014,10,7,14,7,19,0,2014-10-07 14:07:19:891
3.188628,8.644565,0.175525,3.188628,8.644565,0.175525,3.732560,-8.828320,2.073977,11.591350,-6.514010,1.761098,2014,10,7,14,7,19,0,2014-10-07 14:07:19:897
3.188628,8.644565,0.175525,3.188628,8.644565,0.175525,3.732560,-8.828320,2.073977,-1.308926,-0.243885,-6.701369,2014,10,7,14,7,20,0,2014-10-07 14:07:20:388
-6.371419,-2.561197,-2.639458,3.188628,8.644565,0.175525,3.732560,-8.828320,2.073977,-1.308926,-0.243885,-6.701369,2014,10,7,14,7,20,0,2014-10-07 14:07:20:397
-6.371419,-2.561197,-2.639458,-2.562694,2.345420,-10.228179,3.732560,-8.828320,2.073977,-1.308926,-0.243885,-6.701369,2014,10,7,14,7,20,0,2014-10-07 14:07:20:406
-2.562694,2.345420,-10.228179,-2.562694,2.345420,-10.228179,-3.808726,-4.906617,7.588722,-1.308926,-0.243885,-6.701369,2014,10,7,14,7,20,0,2014-10-07 14:07:20:408
-2.562694,2.345420,-10.228179,-2.562694,2.345420,-10.228179,-3.808726,-4.906617,7.588722,-3.279671,0.433625,2.397055,2014,10,7,14,7,20,0,2014-10-07 14:07:20:888
1.953220,-3.487753,0.396390,-2.562694,2.345420,-10.228179,-3.808726,-4.906617,7.588722,-3.279671,0.433625,2.397055,2014,10,7,14,7,20,0,2014-10-07 14:07:20:890
1.953220,-3.487753,0.396390,-0.901118,1.649605,-7.454048,-3.808726,-4.906617,7.588722,-3.279671,0.433625,2.397055,2014,10,7,14,7,20,0,2014-10-07 14:07:20:892
-0.901118,1.649605,-7.454048,-0.901118,1.649605,-7.454048,2.854337,-5.137358,7.850438,-3.279671,0.433625,2.397055,2014,10,7,14,7,20,0,2014-10-07 14:07:20:894
-0.901118,1.649605,-7.454048,-0.901118,1.649605,-7.454048,2.854337,-5.137358,7.850438,-0.738968,-2.070825,1.180519,2014,10,7,14,7,21,0,2014-10-07 14:07:21:388
-0.797718,-12.801198,-3.551649,-0.901118,1.649605,-7.454048,2.854337,-5.137358,7.850438,-0.738968,-2.070825,1.180519,2014,10,7,14,7,21,0,2014-10-07 14:07:21:390
-0.797718,-12.801198,-3.551649,2.593070,-6.953211,-10.656143,2.854337,-5.137358,7.850438,-0.738968,-2.070825,1.180519,2014,10,7,14,7,21,0,2014-10-07 14:07:21:392
2.593070,-6.953211,-10.656143,2.593070,-6.953211,-10.656143,-3.390788,-5.847987,7.104494,-0.738968,-2.070825,1.180519,2014,10,7,14,7,21,0,2014-10-07 14:07:21:401
2.593070,-6.953211,-10.656143,2.593070,-6.953211,-10.656143,-3.390788,-5.847987,7.104494,2.481332,3.600641,-5.073649,2014,10,7,14,7,21,0,2014-10-07 14:07:21:888
18.090139,-19.521723,-14.488362,2.593070,-6.953211,-10.656143,-3.390788,-5.847987,7.104494,2.481332,3.600641,-5.073649,2014,10,7,14,7,21,0,2014-10-07 14:07:21:890
18.090139,-19.521723,-14.488362,15.464149,-15.437813,-23.008577,-3.390788,-5.847987,7.104494,2.481332,3.600641,-5.073649,2014,10,7,14,7,21,0,2014-10-07 14:07:21:892
15.464149,-15.437813,-23.008577,15.464149,-15.437813,-23.008577,2.625990,-4.083910,8.520216,2.481332,3.600641,-5.073649,2014,10,7,14,7,21,0,2014-10-07 14:07:21:893
15.464149,-15.437813,-23.008577,15.464149,-15.437813,-23.008577,2.625990,-4.083910,8.520216,2.872314,-6.838958,7.237610,2014,10,7,14,7,22,0,2014-10-07 14:07:22:387
19.588310,-19.521723,-2.969857,15.464149,-15.437813,-23.008577,2.625990,-4.083910,8.520216,2.872314,-6.838958,7.237610,2014,10,7,14,7,22,0,2014-10-07 14:07:22:389
19.588310,-19.521723,-2.969857,21.243603,-10.383353,-6.119579,2.625990,-4.083910,8.520216,2.872314,-6.838958,7.237610,2014,10,7,14,7,22,0,2014-10-07 14:07:22:391
21.243603,-10.383353,-6.119579,21.243603,-10.383353,-6.119579,-1.655291,-9.138369,3.149722,2.872314,-6.838958,7.237610,2014,10,7,14,7,22,0,2014-10-07 14:07:22:398
21.243603,-10.383353,-6.119579,21.243603,-10.383353,-6.119579,-1.655291,-9.138369,3.149722,3.908834,3.923404,-10.469216,2014,10,7,14,7,22,0,2014-10-07 14:07:22:888
-3.974824,-18.305468,0.190489,21.243603,-10.383353,-6.119579,-1.655291,-9.138369,3.149722,3.908834,3.923404,-10.469216,2014,10,7,14,7,22,0,2014-10-07 14:07:22:898
-3.974824,-18.305468,0.190489,21.243603,-10.383353,-6.119579,-1.655291,-9.138369,3.149722,-4.914763,-5.551054,1.336045,2014,10,7,14,7,23,0,2014-10-07 14:07:23:387
2.882170,1.750760,2.687641,21.243603,-10.383353,-6.119579,-1.655291,-9.138369,3.149722,-4.914763,-5.551054,1.336045,2014,10,7,14,7,23,0,2014-10-07 14:07:23:389
2.882170,1.750760,2.687641,-1.949030,8.463503,-2.581997,-1.655291,-9.138369,3.149722,-4.914763,-5.551054,1.336045,2014,10,7,14,7,23,0,2014-10-07 14:07:23:392
-1.949030,8.463503,-2.581997,-1.949030,8.463503,-2.581997,4.831200,-6.712743,5.269638,-4.914763,-5.551054,1.336045,2014,10,7,14,7,23,0,2014-10-07 14:07:23:394
-1.949030,8.463503,-2.581997,-1.949030,8.463503,-2.581997,4.831200,-6.712743,5.269638,-1.111728,0.432524,-0.467452,2014,10,7,14,7,23,0,2014-10-07 14:07:23:888
-3.227833,-19.167379,-4.983381,-1.949030,8.463503,-2.581997,4.831200,-6.712743,5.269638,-1.111728,0.432524,-0.467452,2014,10,7,14,7,23,0,2014-10-07 14:07:23:890
-3.227833,-19.167379,-4.983381,2.531868,-21.312136,-12.625074,4.831200,-6.712743,5.269638,-1.111728,0.432524,-0.467452,2014,10,7,14,7,23,0,2014-10-07 14:07:23:893
2.531868,-21.312136,-12.625074,2.531868,-21.312136,-12.625074,-5.759701,2.144756,7.641693,-1.111728,0.432524,-0.467452,2014,10,7,14,7,23,0,2014-10-07 14:07:23:895
2.531868,-21.312136,-12.625074,2.531868,-21.312136,-12.625074,-5.759701,2.144756,7.641693,-4.710180,3.730579,-2.139918,2014,10,7,14,7,24,0,2014-10-07 14:07:24:388
14.060698,1.920748,1.674894,2.531868,-21.312136,-12.625074,-5.759701,2.144756,7.641693,-4.710180,3.730579,-2.139918,2014,10,7,14,7,24,0,2014-10-07 14:07:24:391
14.060698,1.920748,1.674894,9.870545,6.376208,-5.990592,-5.759701,2.144756,7.641693,-4.710180,3.730579,-2.139918,2014,10,7,14,7,24,0,2014-10-07 14:07:24:394
9.870545,6.376208,-5.990592,9.870545,6.376208,-5.990592,4.190152,-4.455460,7.665486,-4.710180,3.730579,-2.139918,2014,10,7,14,7,24,0,2014-10-07 14:07:24:396
9.870545,6.376208,-5.990592,9.870545,6.376208,-5.990592,4.190152,-4.455460,7.665486,3.817250,-1.539280,3.208776,2014,10,7,14,7,24,0,2014-10-07 14:07:24:886
-5.588516,-9.494805,4.181623,9.870545,6.376208,-5.990592,4.190152,-4.455460,7.665486,3.817250,-1.539280,3.208776,2014,10,7,14,7,24,0,2014-10-07 14:07:24:889
-5.588516,-9.494805,4.181623,0.409857,-8.960001,-3.558083,4.190152,-4.455460,7.665486,3.817250,-1.539280,3.208776,2014,10,7,14,7,24,0,2014-10-07 14:07:24:891
0.409857,-8.960001,-3.558083,0.409857,-8.960001,-3.558083,-5.998373,-0.534805,7.739706,3.817250,-1.539280,3.208776,2014,10,7,14,7,24,0,2014-10-07 14:07:24:893
0.409857,-8.960001,-3.558083,0.409857,-8.960001,-3.558083,-5.998373,-0.534805,7.739706,0.248714,-0.634898,-1.421937,2014,10,7,14,7,25,0,2014-10-07 14:07:25:389
12.071116,5.461772,3.393930,0.409857,-8.960001,-3.558083,-5.998373,-0.534805,7.739706,0.248714,-0.634898,-1.421937,2014,10,7,14,7,25,0,2014-10-07 14:07:25:391
12.071116,5.461772,3.393930,10.456078,9.387216,-5.446360,-5.998373,-0.534805,7.739706,0.248714,-0.634898,-1.421937,2014,10,7,14,7,25,0,2014-10-07 14:07:25:393
10.456078,9.387216,-5.446360,10.456078,9.387216,-5.446360,1.615039,-3.925443,8.840290,0.248714,-0.634898,-1.421937,2014,10,7,14,7,25,0,2014-10-07 14:07:25:395
10.456078,9.387216,-5.446360,10.456078,9.387216,-5.446360,1.615039,-3.925443,8.840290,3.183495,-0.593347,1.561871,2014,10,7,14,7,25,0,2014-10-07 14:07:25:886
-0.302118,-6.887520,11.941231,10.456078,9.387216,-5.446360,1.615039,-3.925443,8.840290,3.183495,-0.593347,1.561871,2014,10,7,14,7,25,0,2014-10-07 14:07:25:889
-0.302118,-6.887520,11.941231,4.628890,-10.373776,4.214693,1.615039,-3.925443,8.840290,3.183495,-0.593347,1.561871,2014,10,7,14,7,25,0,2014-10-07 14:07:25:891
4.628890,-10.373776,4.214693,4.628890,-10.373776,4.214693,-4.931008,3.486257,7.726538,3.183495,-0.593347,1.561871,2014,10,7,14,7,25,0,2014-10-07 14:07:25:893
4.628890,-10.373776,4.214693,4.628890,-10.373776,4.214693,-4.931008,3.486257,7.726538,2.417599,-0.751014,0.995148,2014,10,7,14,7,26,0,2014-10-07 14:07:26:388
15.695937,-7.684789,4.701165,4.628890,-10.373776,4.214693,-4.931008,3.486257,7.726538,2.417599,-0.751014,0.995148,2014,10,7,14,7,26,0,2014-10-07 14:07:26:390
15.695937,-7.684789,4.701165,10.037541,-5.187487,-2.908955,-4.931008,3.486257,7.726538,2.417599,-0.751014,0.995148,2014,10,7,14,7,26,0,2014-10-07 14:07:26:392
10.037541,-5.187487,-2.908955,10.037541,-5.187487,-2.908955,5.658396,-2.497302,7.610120,2.417599,-0.751014,0.995148,2014,10,7,14,7,26,0,2014-10-07 14:07:26:398
10.037541,-5.187487,-2.908955,10.037541,-5.187487,-2.908955,5.658396,-2.497302,7.610120,-1.196802,-1.329464,8.142003,2014,10,7,14,7,26,0,2014-10-07 14:07:26:886
15.468489,-19.521723,12.882152,10.037541,-5.187487,-2.908955,5.658396,-2.497302,7.610120,-1.196802,-1.329464,8.142003,2014,10,7,14,7,26,0,2014-10-07 14:07:26:888
15.468489,-19.521723,12.882152,19.582775,-21.211281,4.142118,5.658396,-2.497302,7.610120,-1.196802,-1.329464,8.142003,2014,10,7,14,7,26,0,2014-10-07 14:07:26:890
19.582775,-21.211281,4.142118,19.582775,-21.211281,4.142118,-4.114286,1.689558,8.740033,-1.196802,-1.329464,8.142003,2014,10,7,14,7,26,0,2014-10-07 14:07:26:897
19.582775,-21.211281,4.142118,19.582775,-21.211281,4.142118,-4.114286,1.689558,8.740033,-0.728103,-1.703367,-5.893919,2014,10,7,14,7,27,0,2014-10-07 14:07:27:386
14.908245,-19.521723,8.953267,19.582775,-21.211281,4.142118,-4.114286,1.689558,8.740033,-0.728103,-1.703367,-5.893919,2014,10,7,14,7,27,0,2014-10-07 14:07:27:388
14.908245,-19.521723,8.953267,15.704167,-20.439150,-0.777816,-4.114286,1.689558,8.740033,-0.728103,-1.703367,-5.893919,2014,10,7,14,7,27,0,2014-10-07 14:07:27:391
15.704167,-20.439150,-0.777816,15.704167,-20.439150,-0.777816,-0.795922,0.917428,9.731083,-0.728103,-1.703367,-5.893919,2014,10,7,14,7,27,0,2014-10-07 14:07:27:394
15.704167,-20.439150,-0.777816,15.704167,-20.439150,-0.777816,-0.795922,0.917428,9.731083,-2.729706,-0.216266,6.039171,2014,10,7,14,7,27,0,2014-10-07 14:07:27:888
12.066328,-7.823653,6.808062,15.704167,-20.439150,-0.777816,-0.795922,0.917428,9.731083,-2.729706,-0.216266,6.039171,2014,10,7,14,7,27,0,2014-10-07 14:07:27:891
12.066328,-7.823653,6.808062,16.682648,-4.507235,-1.183334,-0.795922,0.917428,9.731083,-2.729706,-0.216266,6.039171,2014,10,7,14,7,27,0,2014-10-07 14:07:27:893
16.682648,-4.507235,-1.183334,16.682648,-4.507235,-1.183334,-4.616320,-3.316418,7.991396,-2.729706,-0.216266,6.039171,2014,10,7,14,7,27,0,2014-10-07 14:07:27:895
16.682648,-4.507235,-1.183334,16.682648,-4.507235,-1.183334,-4.616320,-3.316418,7.991396,3.665094,0.782948,-4.224653,2014,10,7,14,7,28,0,2014-10-07 14:07:28:386
7.055264,-19.521723,1.215207,16.682648,-4.507235,-1.183334,-4.616320,-3.316418,7.991396,3.665094,0.782948,-4.224653,2014,10,7,14,7,28,0,2014-10-07 14:07:28:389
7.055264,-19.521723,1.215207,12.003929,-22.004360,-6.878990,-4.616320,-3.316418,7.991396,3.665094,0.782948,-4.224653,2014,10,7,14,7,28,0,2014-10-07 14:07:28:391
12.003929,-22.004360,-6.878990,12.003929,-22.004360,-6.878990,-4.948665,2.482638,8.094197,3.665094,0.782948,-4.224653,2014,10,7,14,7,28,0,2014-10-07 14:07:28:395
12.003929,-22.004360,-6.878990,12.003929,-22.004360,-6.878990,-4.948665,2.482638,8.094197,-1.269170,-3.587844,6.121192,2014,10,7,14,7,28,0,2014-10-07 14:07:28:888
12.068722,-3.581127,1.023671,12.003929,-22.004360,-6.878990,-4.948665,2.482638,8.094197,-1.269170,-3.587844,6.121192,2014,10,7,14,7,28,0,2014-10-07 14:07:28:891
12.068722,-3.581127,1.023671,15.520412,-0.333542,-7.561787,-4.948665,2.482638,8.094197,-1.269170,-3.587844,6.121192,2014,10,7,14,7,28,0,2014-10-07 14:07:28:893
15.520412,-0.333542,-7.561787,15.520412,-0.333542,-7.561787,-3.451691,-3.247585,8.585458,-1.269170,-3.587844,6.121192,2014,10,7,14,7,28,0,2014-10-07 14:07:28:895
15.520412,-0.333542,-7.561787,15.520412,-0.333542,-7.561787,-3.451691,-3.247585,8.585458,-1.601538,1.154715,-7.869991,2014,10,7,14,7,29,0,2014-10-07 14:07:29:386
6.008997,-19.521723,-2.328212,15.520412,-0.333542,-7.561787,-3.451691,-3.247585,8.585458,-1.601538,1.154715,-7.869991,2014,10,7,14,7,29,0,2014-10-07 14:07:29:389
6.008997,-19.521723,-2.328212,2.976741,-18.308161,-11.574918,-3.451691,-3.247585,8.585458,-1.601538,1.154715,-7.869991,2014,10,7,14,7,29,0,2014-10-07 14:07:29:390
2.976741,-18.308161,-11.574918,2.976741,-18.308161,-11.574918,3.032256,-1.213561,9.246706,-1.601538,1.154715,-7.869991,2014,10,7,14,7,29,0,2014-10-07 14:07:29:392
2.976741,-18.308161,-11.574918,2.976741,-18.308161,-11.574918,3.032256,-1.213561,9.246706,-3.108834,-2.241362,3.819151,2014,10,7,14,7,29,0,2014-10-07 14:07:29:886
4.869357,6.017228,0.769885,2.976741,-18.308161,-11.574918,3.032256,-1.213561,9.246706,-3.108834,-2.241362,3.819151,2014,10,7,14,7,29,0,2014-10-07 14:07:29:889
4.869357,6.017228,0.769885,7.511958,9.141960,-8.142081,3.032256,-1.213561,9.246706,-3.108834,-2.241362,3.819151,2014,10,7,14,7,29,0,2014-10-07 14:07:29:891
7.511958,9.141960,-8.142081,7.511958,9.141960,-8.142081,-2.642600,-3.124732,8.911967,-3.108834,-2.241362,3.819151,2014,10,7,14,7,29,0,2014-10-07 14:07:29:893
7.511958,9.141960,-8.142081,7.511958,9.141960,-8.142081,-2.642600,-3.124732,8.911967,1.074494,1.057752,-4.730664,2014,10,7,14,7,30,0,2014-10-07 14:07:30:389
-4.053833,-12.647969,-2.256386,7.511958,9.141960,-8.142081,-2.642600,-3.124732,8.911967,1.074494,1.057752,-4.730664,2014,10,7,14,7,30,0,2014-10-07 14:07:30:391
-4.053833,-12.647969,-2.256386,-5.916821,-12.051364,-11.865813,-2.642600,-3.124732,8.911967,1.074494,1.057752,-4.730664,2014,10,7,14,7,30,0,2014-10-07 14:07:30:392
-5.916821,-12.051364,-11.865813,-5.916821,-12.051364,-11.865813,1.862988,-0.596605,9.609427,1.074494,1.057752,-4.730664,2014,10,7,14,7,30,0,2014-10-07 14:07:30:398
-5.916821,-12.051364,-11.865813,-5.916821,-12.051364,-11.865813,1.862988,-0.596605,9.609427,-2.170307,-1.194216,1.329626,2014,10,7,14,7,30,0,2014-10-07 14:07:30:888
4.586842,1.705270,0.398784,-5.916821,-12.051364,-11.865813,1.862988,-0.596605,9.609427,-2.170307,-1.194216,1.329626,2014,10,7,14,7,30,0,2014-10-07 14:07:30:890
4.586842,1.705270,0.398784,9.288156,7.192182,-6.231658,1.862988,-0.596605,9.609427,-2.170307,-1.194216,1.329626,2014,10,7,14,7,30,0,2014-10-07 14:07:30:892
9.288156,7.192182,-6.231658,9.288156,7.192182,-6.231658,-4.701314,-5.486912,6.630442,-2.170307,-1.194216,1.329626,2014,10,7,14,7,30,0,2014-10-07 14:07:30:907
9.288156,7.192182,-6.231658,9.288156,7.192182,-6.231658,-4.701314,-5.486912,6.630442,0.418298,0.044684,2.471589,2014,10,7,14,7,31,0,2014-10-07 14:07:31:389
4.246865,-15.985486,1.533636,9.288156,7.192182,-6.231658,-4.701314,-5.486912,6.630442,0.418298,0.044684,2.471589,2014,10,7,14,7,31,0,2014-10-07 14:07:31:392
4.246865,-15.985486,1.533636,1.470339,-18.103607,-7.630022,-4.701314,-5.486912,6.630442,0.418298,0.044684,2.471589,2014,10,7,14,7,31,0,2014-10-07 14:07:31:394
1.470339,-18.103607,-7.630022,1.470339,-18.103607,-7.630022,2.776526,2.118120,9.163657,0.418298,0.044684,2.471589,2014,10,7,14,7,31,0,2014-10-07 14:07:31:396
1.470339,-18.103607,-7.630022,1.470339,-18.103607,-7.630022,2.776526,2.118120,9.163657,-0.844035,0.434569,-5.177011,2014,10,7,14,7,31,0,2014-10-07 14:07:31:886
19.588310,-19.387648,3.252673,1.470339,-18.103607,-7.630022,2.776526,2.118120,9.163657,-0.844035,0.434569,-5.177011,2014,10,7,14,7,31,0,2014-10-07 14:07:31:889
19.588310,-19.387648,3.252673,21.797560,-15.736489,-5.576694,2.776526,2.118120,9.163657,-0.844035,0.434569,-5.177011,2014,10,7,14,7,31,0,2014-10-07 14:07:31:891
21.797560,-15.736489,-5.576694,21.797560,-15.736489,-5.576694,-2.209250,-3.651158,8.829367,-0.844035,0.434569,-5.177011,2014,10,7,14,7,31,0,2014-10-07 14:07:31:892
21.797560,-15.736489,-5.576694,21.797560,-15.736489,-5.576694,-2.209250,-3.651158,8.829367,-1.124147,0.473969,8.377410,2014,10,7,14,7,32,0,2014-10-07 14:07:32:386
19.588310,-19.521723,9.556605,21.797560,-15.736489,-5.576694,-2.209250,-3.651158,8.829367,-1.124147,0.473969,8.377410,2014,10,7,14,7,32,0,2014-10-07 14:07:32:388
19.588310,-19.521723,9.556605,24.685417,-19.825935,1.184232,-2.209250,-3.651158,8.829367,-1.124147,0.473969,8.377410,2014,10,7,14,7,32,0,2014-10-07 14:07:32:390
24.685417,-19.825935,1.184232,24.685417,-19.825935,1.184232,-5.097106,0.304213,8.372374,-1.124147,0.473969,8.377410,2014,10,7,14,7,32,0,2014-10-07 14:07:32:397
24.685417,-19.825935,1.184232,24.685417,-19.825935,1.184232,-5.097106,0.304213,8.372374,5.201458,-0.445372,-8.102236,2014,10,7,14,7,32,0,2014-10-07 14:07:32:888
8.103924,-19.521723,0.666935,24.685417,-19.825935,1.184232,-5.097106,0.304213,8.372374,5.201458,-0.445372,-8.102236,2014,10,7,14,7,32,0,2014-10-07 14:07:32:890
8.103924,-19.521723,0.666935,13.271659,-18.805857,-7.636755,-5.097106,0.304213,8.372374,5.201458,-0.445372,-8.102236,2014,10,7,14,7,32,0,2014-10-07 14:07:32:892
13.271659,-18.805857,-7.636755,13.271659,-18.805857,-7.636755,-5.167735,-0.715866,8.303690,5.201458,-0.445372,-8.102236,2014,10,7,14,7,32,0,2014-10-07 14:07:32:898
13.271659,-18.805857,-7.636755,13.271659,-18.805857,-7.636755,-5.167735,-0.715866,8.303690,-1.925225,-0.315392,5.751533,2014,10,7,14,7,33,0,2014-10-07 14:07:33:385
6.619519,-6.372766,1.883189,13.271659,-18.805857,-7.636755,-5.167735,-0.715866,8.303690,-1.925225,-0.315392,5.751533,2014,10,7,14,7,33,0,2014-10-07 14:07:33:388
6.619519,-6.372766,1.883189,13.126659,-4.828506,-5.289240,-5.167735,-0.715866,8.303690,-1.925225,-0.315392,5.751533,2014,10,7,14,7,33,0,2014-10-07 14:07:33:390
13.126659,-4.828506,-5.289240,13.126659,-4.828506,-5.289240,-6.507141,-1.544260,7.172430,-1.925225,-0.315392,5.751533,2014,10,7,14,7,33,0,2014-10-07 14:07:33:392
13.126659,-4.828506,-5.289240,13.126659,-4.828506,-5.289240,-6.507141,-1.544260,7.172430,-1.560893,0.500597,-6.345611,2014,10,7,14,7,33,0,2014-10-07 14:07:33:886
-3.340360,-11.285668,-0.882114,13.126659,-4.828506,-5.289240,-6.507141,-1.544260,7.172430,-1.560893,0.500597,-6.345611,2014,10,7,14,7,33,0,2014-10-07 14:07:33:888
-3.340360,-11.285668,-0.882114,-4.213645,-14.213328,-10.200646,-6.507141,-1.544260,7.172430,-1.560893,0.500597,-6.345611,2014,10,7,14,7,33,0,2014-10-07 14:07:33:890
-4.213645,-14.213328,-10.200646,-4.213645,-14.213328,-10.200646,0.873285,2.927660,9.318532,-1.560893,0.500597,-6.345611,2014,10,7,14,7,33,0,2014-10-07 14:07:33:892
-4.213645,-14.213328,-10.200646,-4.213645,-14.213328,-10.200646,0.873285,2.927660,9.318532,-3.477292,-0.322855,1.775964,2014,10,7,14,7,34,0,2014-10-07 14:07:34:388
1.670704,-5.762245,-2.072032,-4.213645,-14.213328,-10.200646,0.873285,2.927660,9.318532,-3.477292,-0.322855,1.775964,2014,10,7,14,7,34,0,2014-10-07 14:07:34:390
1.670704,-5.762245,-2.072032,7.574207,-0.205452,-7.589470,0.873285,2.927660,9.318532,-3.477292,-0.322855,1.775964,2014,10,7,14,7,34,0,2014-10-07 14:07:34:393
7.574207,-0.205452,-7.589470,7.574207,-0.205452,-7.589470,-5.903503,-5.556793,5.517438,-3.477292,-0.322855,1.775964,2014,10,7,14,7,34,0,2014-10-07 14:07:34:395
7.574207,-0.205452,-7.589470,7.574207,-0.205452,-7.589470,-5.903503,-5.556793,5.517438,1.019254,-1.024882,-3.832658,2014,10,7,14,7,34,0,2014-10-07 14:07:34:887
-0.603788,-9.564238,-1.411232,7.574207,-0.205452,-7.589470,-5.903503,-5.556793,5.517438,1.019254,-1.024882,-3.832658,2014,10,7,14,7,34,0,2014-10-07 14:07:34:889
-0.603788,-9.564238,-1.411232,5.373785,-12.626870,-8.556727,-5.903503,-5.556793,5.517438,1.019254,-1.024882,-3.832658,2014,10,7,14,7,34,0,2014-10-07 14:07:34:892
5.373785,-12.626870,-8.556727,5.373785,-12.626870,-8.556727,-5.977573,3.062633,7.145495,1.019254,-1.024882,-3.832658,2014,10,7,14,7,34,0,2014-10-07 14:07:34:893
5.373785,-12.626870,-8.556727,5.373785,-12.626870,-8.556727,-5.977573,3.062633,7.145495,-0.917426,0.496323,3.375989,2014,10,7,14,7,35,0,2014-10-07 14:07:35:387
1.855057,-0.066439,0.894384,5.373785,-12.626870,-8.556727,-5.977573,3.062633,7.145495,-0.917426,0.496323,3.375989,2014,10,7,14,7,35,0,2014-10-07 14:07:35:389
1.855057,-0.066439,0.894384,3.412336,8.778191,-3.044826,-5.977573,3.062633,7.145495,-0.917426,0.496323,3.375989,2014,10,7,14,7,35,0,2014-10-07 14:07:35:390
3.412336,8.778191,-3.044826,3.412336,8.778191,-3.044826,-1.557279,-8.844630,3.939210,-0.917426,0.496323,3.375989,2014,10,7,14,7,35,0,2014-10-07 14:07:35:397
3.412336,8.778191,-3.044826,3.412336,8.778191,-3.044826,-1.557279,-8.844630,3.939210,0.828671,0.103205,-1.262183,2014,10,7,14,7,35,0,2014-10-07 14:07:35:888
-6.347477,-0.310648,-2.297087,3.412336,8.778191,-3.044826,-1.557279,-8.844630,3.939210,0.828671,0.103205,-1.262183,2014,10,7,14,7,35,0,2014-10-07 14:07:35:890
-6.347477,-0.310648,-2.297087,-3.668515,-6.424990,-9.480889,-1.557279,-8.844630,3.939210,0.828671,0.103205,-1.262183,2014,10,7,14,7,35,0,2014-10-07 14:07:35:892
-3.668515,-6.424990,-9.480889,-3.668515,-6.424990,-9.480889,-2.678962,6.114342,7.183802,0.828671,0.103205,-1.262183,2014,10,7,14,7,35,0,2014-10-07 14:07:35:898
-3.668515,-6.424990,-9.480889,-3.668515,-6.424990,-9.480889,-2.678962,6.114342,7.183802,-4.470013,1.037458,2.063577,2014,10,7,14,7,36,0,2014-10-07 14:07:36:387
5.048923,-0.784700,2.065149,-3.668515,-6.424990,-9.480889,-2.678962,6.114342,7.183802,-4.470013,1.037458,2.063577,2014,10,7,14,7,36,0,2014-10-07 14:07:36:389
5.048923,-0.784700,2.065149,10.697742,5.809830,-2.492813,-2.678962,6.114342,7.183802,-4.470013,1.037458,2.063577,2014,10,7,14,7,36,0,2014-10-07 14:07:36:391
10.697742,5.809830,-2.492813,10.697742,5.809830,-2.492813,-5.648819,-6.594529,4.557961,-4.470013,1.037458,2.063577,2014,10,7,14,7,36,0,2014-10-07 14:07:36:393
10.697742,5.809830,-2.492813,10.697742,5.809830,-2.492813,-5.648819,-6.594529,4.557961,-0.841593,-1.147435,1.824948,2014,10,7,14,7,36,0,2014-10-07 14:07:36:880
-9.057714,-14.922461,-1.028160,10.697742,5.809830,-2.492813,-5.648819,-6.594529,4.557961,-0.841593,-1.147435,1.824948,2014,10,7,14,7,36,0,2014-10-07 14:07:36:882
-9.057714,-14.922461,-1.028160,-11.317691,-16.990902,-10.343849,-5.648819,-6.594529,4.557961,-0.841593,-1.147435,1.824948,2014,10,7,14,7,36,0,2014-10-07 14:07:36:884
-11.317691,-16.990902,-10.343849,-11.317691,-16.990902,-10.343849,2.259977,2.068441,9.315689,-0.841593,-1.147435,1.824948,2014,10,7,14,7,36,0,2014-10-07 14:07:36:888
-11.317691,-16.990902,-10.343849,-11.317691,-16.990902,-10.343849,2.259977,2.068441,9.315689,0.048874,-0.132212,-1.009713,2014,10,7,14,7,37,0,2014-10-07 14:07:37:389
7.364116,1.374870,0.073173,-11.317691,-16.990902,-10.343849,2.259977,2.068441,9.315689,0.048874,-0.132212,-1.009713,2014,10,7,14,7,37,0,2014-10-07 14:07:37:391
7.364116,1.374870,0.073173,13.559562,3.935469,-7.084293,2.259977,2.068441,9.315689,0.048874,-0.132212,-1.009713,2014,10,7,14,7,37,0,2014-10-07 14:07:37:393
13.559562,3.935469,-7.084293,13.559562,3.935469,-7.084293,-6.195446,-2.560599,7.157466,0.048874,-0.132212,-1.009713,2014,10,7,14,7,37,0,2014-10-07 14:07:37:395
13.559562,3.935469,-7.084293,13.559562,3.935469,-7.084293,-6.195446,-2.560599,7.157466,2.021750,-0.261110,2.440678,2014,10,7,14,9,1,0,2014-10-07 14:09:01:882
15.102176,-8.788516,-0.590021,13.559562,3.935469,-7.084293,-6.195446,-2.560599,7.157466,2.021750,-0.261110,2.440678,2014,10,7,14,9,1,0,2014-10-07 14:09:01:912
15.102176,-8.788516,-0.590021,9.738565,-12.496087,-7.914932,-6.195446,-2.560599,7.157466,2.021750,-0.261110,2.440678,2014,10,7,14,9,1,0,2014-10-07 14:09:01:914
9.738565,-12.496087,-7.914932,9.738565,-12.496087,-7.914932,5.363610,3.707571,7.324911,2.021750,-0.261110,2.440678,2014,10,7,14,9,1,0,2014-10-07 14:09:01:916
9.738565,-12.496087,-7.914932,9.738565,-12.496087,-7.914932,5.363610,3.707571,7.324911,-0.027439,0.006058,0.001919,2014,10,7,14,9,1,0,2014-10-07 14:09:01:918
19.588310,-16.299126,-6.467786,9.738565,-12.496087,-7.914932,5.363610,3.707571,7.324911,-0.027439,0.006058,0.001919,2014,10,7,14,9,1,0,2014-10-07 14:09:01:920
19.588310,-16.299126,-6.467786,14.224701,-20.006697,-13.792697,5.363610,3.707571,7.324911,-0.027439,0.006058,0.001919,2014,10,7,14,9,1,0,2014-10-07 14:09:01:954
14.224701,-20.006697,-13.792697,14.224701,-20.006697,-13.792697,5.363610,3.707571,7.324911,-0.027439,0.006058,0.001919,2014,10,7,14,9,1,0,2014-10-07 14:09:01:962
14.224701,-20.006697,-13.792697,14.224701,-20.006697,-13.792697,5.363610,3.707571,7.324911,-0.027451,0.006061,0.001920,2014,10,7,14,9,1,0,2014-10-07 14:09:01:964
19.588310,-10.565014,-0.058508,14.224701,-20.006697,-13.792697,5.363610,3.707571,7.324911,-0.027451,0.006061,0.001920,2014,10,7,14,9,1,0,2014-10-07 14:09:01:966
19.588310,-10.565014,-0.058508,27.978790,-8.306832,-4.605097,5.363610,3.707571,7.324911,-0.027451,0.006061,0.001920,2014,10,7,14,9,1,0,2014-10-07 14:09:01:980
27.978790,-8.306832,-4.605097,27.978790,-8.306832,-4.605097,-8.390480,-2.258181,4.546589,-0.027451,0.006061,0.001920,2014,10,7,14,10,0,0,2014-10-07 14:10:00:774
27.978790,-8.306832,-4.605097,27.978790,-8.306832,-4.605097,-8.390480,-2.258181,4.546589,-0.027451,0.006061,0.001920,2014,10,7,14,10,0,0,2014-10-07 14:10:00:813
18.990358,1.542464,0.832135,27.978790,-8.306832,-4.605097,-8.390480,-2.258181,4.546589,-0.027451,0.006061,0.001920,2014,10,7,14,10,0,0,2014-10-07 14:10:00:815
18.990358,1.542464,0.832135,27.978790,-8.306832,-4.605097,-8.390480,-2.258181,4.546589,-0.027451,0.006061,0.001920,2014,10,7,14,10,0,0,2014-10-07 14:10:00:817
14.075063,-3.049614,-0.525378,27.978790,-8.306832,-4.605097,-8.390480,-2.258181,4.546589,-0.027451,0.006061,0.001920,2014,10,7,14,10,0,0,2014-10-07 14:10:00:819
14.075063,-3.049614,-0.525378,22.503700,-0.667084,-4.935796,-8.390480,-2.258181,4.546589,-0.027451,0.006061,0.001920,2014,10,7,14,10,0,0,2014-10-07 14:10:00:821
22.503700,-0.667084,-4.935796,22.503700,-0.667084,-4.935796,-8.428638,-2.382530,4.410419,-0.027451,0.006061,0.001920,2014,10,7,14,10,0,0,2014-10-07 14:10:00:833
22.503700,-0.667084,-4.935796,22.503700,-0.667084,-4.935796,-8.428638,-2.382530,4.410419,-0.027451,0.006061,0.001920,2014,10,7,14,10,0,0,2014-10-07 14:10:00:835
1.294814,12.014703,0.458639,22.503700,-0.667084,-4.935796,-8.428638,-2.382530,4.410419,-0.027451,0.006061,0.001920,2014,10,7,14,10,0,0,2014-10-07 14:10:00:852
1.294814,12.014703,0.458639,9.060108,15.323938,-4.533421,-8.428638,-2.382530,4.410419,-0.027451,0.006061,0.001920,2014,10,7,14,10,0,0,2014-10-07 14:10:00:856
9.060108,15.323938,-4.533421,9.060108,15.323938,-4.533421,-7.765294,-3.309236,4.992060,-0.027451,0.006061,0.001920,2014,10,7,14,10,0,0,2014-10-07 14:10:00:858
9.060108,15.323938,-4.533421,9.060108,15.323938,-4.533421,-7.765294,-3.309236,4.992060,-0.027451,0.006061,0.001920,2014,10,7,14,10,0,0,2014-10-07 14:10:00:860
5.288342,-7.100604,-0.748038,9.060108,15.323938,-4.533421,-7.765294,-3.309236,4.992060,-0.027451,0.006061,0.001920,2014,10,7,14,10,0,0,2014-10-07 14:10:00:931
5.288342,-7.100604,-0.748038,13.356652,-5.304503,-6.025158,-7.765294,-3.309236,4.992060,-0.027451,0.006061,0.001920,2014,10,7,14,10,0,0,2014-10-07 14:10:00:933
13.356652,-5.304503,-6.025158,13.356652,-5.304503,-6.025158,-8.068310,-1.796100,5.277120,-0.027451,0.006061,0.001920,2014,10,7,14,10,0,0,2014-10-07 14:10:00:935
13.356652,-5.304503,-6.025158,13.356652,-5.304503,-6.025158,-8.068310,-1.796100,5.277120,-0.027475,0.006067,0.001921,2014,10,7,14,10,0,0,2014-10-07 14:10:00:938
13.184420,1.317410,-2.768745,13.356652,-5.304503,-6.025158,-8.068310,-1.796100,5.277120,-0.027475,0.006067,0.001921,2014,10,7,14,10,0,0,2014-10-07 14:10:00:940
13.184420,1.317410,-2.768745,20.840179,4.331709,-8.104821,-8.068310,-1.796100,5.277120,-0.027475,0.006067,0.001921,2014,10,7,14,10,0,0,2014-10-07 14:10:00:947
20.840179,4.331709,-8.104821,20.840179,4.331709,-8.104821,-7.655759,-3.014300,5.336077,-0.027475,0.006067,0.001921,2014,10,7,14,10,0,0,2014-10-07 14:10:00:957
20.840179,4.331709,-8.104821,20.840179,4.331709,-8.104821,-7.655759,-3.014300,5.336077,-0.027475,0.006067,0.001921,2014,10,7,14,10,0,0,2014-10-07 14:10:00:965
18.614470,-0.320224,-0.262015,20.840179,4.331709,-8.104821,-7.655759,-3.014300,5.336077,-0.027475,0.006067,0.001921,2014,10,7,14,10,0,0,2014-10-07 14:10:00:974
18.614470,-0.320224,-0.262015,25.721807,3.137601,-6.067206,-7.655759,-3.014300,5.336077,-0.027475,0.006067,0.001921,2014,10,7,14,10,0,0,2014-10-07 14:10:00:976
25.721807,3.137601,-6.067206,25.721807,3.137601,-6.067206,-7.107337,-3.457826,5.805191,-0.027475,0.006067,0.001921,2014,10,7,14,10,0,0,2014-10-07 14:10:00:978
25.721807,3.137601,-6.067206,25.721807,3.137601,-6.067206,-7.107337,-3.457826,5.805191,-0.027475,0.006067,0.001921,2014,10,7,14,10,0,0,2014-10-07 14:10:00:980
19.588310,-14.367006,0.623839,25.721807,3.137601,-6.067206,-7.107337,-3.457826,5.805191,-0.027475,0.006067,0.001921,2014,10,7,14,10,0,0,2014-10-07 14:10:00:982
19.588310,-14.367006,0.623839,26.720787,-10.824784,-5.099051,-7.107337,-3.457826,5.805191,-0.027475,0.006067,0.001921,2014,10,7,14,10,0,0,2014-10-07 14:10:00:984
26.720787,-10.824784,-5.099051,26.720787,-10.824784,-5.099051,-7.132476,-3.542221,5.722890,-0.027475,0.006067,0.001921,2014,10,7,14,11,0,0,2014-10-07 14:11:00:781
26.720787,-10.824784,-5.099051,26.720787,-10.824784,-5.099051,-7.132476,-3.542221,5.722890,-0.027475,0.006067,0.001921,2014,10,7,14,11,0,0,2014-10-07 14:11:00:810
19.588310,-19.521723,12.642732,26.720787,-10.824784,-5.099051,-7.132476,-3.542221,5.722890,-0.027475,0.006067,0.001921,2014,10,7,14,11,0,0,2014-10-07 14:11:00:812
19.588310,-19.521723,12.642732,26.745777,-15.896602,7.003489,-7.132476,-3.542221,5.722890,-0.027475,0.006067,0.001921,2014,10,7,14,11,0,0,2014-10-07 14:11:00:814
26.745777,-15.896602,7.003489,26.745777,-15.896602,7.003489,-7.157466,-3.625121,5.639243,-0.027475,0.006067,0.001921,2014,10,7,14,11,0,0,2014-10-07 14:11:00:816
26.745777,-15.896602,7.003489,26.745777,-15.896602,7.003489,-7.157466,-3.625121,5.639243,-0.027475,0.006067,0.001921,2014,10,7,14,11,0,0,2014-10-07 14:11:00:818
16.902615,-17.273567,6.937349,26.745777,-15.896602,7.003489,-7.157466,-3.625121,5.639243,-0.027475,0.006067,0.001921,2014,10,7,14,11,0,0,2014-10-07 14:11:00:820
16.902615,-17.273567,6.937349,24.084772,-13.566894,1.383250,-7.157466,-3.625121,5.639243,-0.027475,0.006067,0.001921,2014,10,7,14,11,0,0,2014-10-07 14:11:00:833
24.084772,-13.566894,1.383250,24.084772,-13.566894,1.383250,-7.182156,-3.706673,5.554099,-0.027475,0.006067,0.001921,2014,10,7,14,11,0,0,2014-10-07 14:11:00:835
24.084772,-13.566894,1.383250,24.084772,-13.566894,1.383250,-7.182156,-3.706673,5.554099,-0.027475,0.006067,0.001921,2014,10,7,14,11,0,0,2014-10-07 14:11:00:840
19.588310,-10.627263,11.428871,24.084772,-13.566894,1.383250,-7.182156,-3.706673,5.554099,-0.027475,0.006067,0.001921,2014,10,7,14,11,0,0,2014-10-07 14:11:00:841
19.588310,-10.627263,11.428871,26.795008,-6.840384,5.961263,-7.182156,-3.706673,5.554099,-0.027475,0.006067,0.001921,2014,10,7,14,11,0,0,2014-10-07 14:11:00:843
26.795008,-6.840384,5.961263,26.795008,-6.840384,5.961263,-7.206697,-3.786879,5.467608,-0.027475,0.006067,0.001921,2014,10,7,14,11,0,0,2014-10-07 14:11:00:848
26.795008,-6.840384,5.961263,26.795008,-6.840384,5.961263,-7.206697,-3.786879,5.467608,-0.027451,0.006061,0.001920,2014,10,7,14,11,0,0,2014-10-07 14:11:00:852
18.252945,-12.518682,5.548712,26.795008,-6.840384,5.961263,-7.206697,-3.786879,5.467608,-0.027451,0.006061,0.001920,2014,10,7,14,11,0,0,2014-10-07 14:11:00:855
18.252945,-12.518682,5.548712,25.483883,-8.653094,0.168941,-7.206697,-3.786879,5.467608,-0.027451,0.006061,0.001920,2014,10,7,14,11,0,0,2014-10-07 14:11:00:860
25.483883,-8.653094,0.168941,25.483883,-8.653094,0.168941,-7.230938,-3.865588,5.379771,-0.027451,0.006061,0.001920,2014,10,7,14,11,0,0,2014-10-07 14:11:00:862
25.483883,-8.653094,0.168941,25.483883,-8.653094,0.168941,-7.230938,-3.865588,5.379771,-0.027439,0.006058,0.001919,2014,10,7,14,11,0,0,2014-10-07 14:11:00:864
8.163779,1.458667,1.107468,25.483883,-8.653094,0.168941,-7.230938,-3.865588,5.379771,-0.027439,0.006058,0.001919,2014,10,7,14,11,0,0,2014-10-07 14:11:00:866
8.163779,1.458667,1.107468,15.418809,5.401618,-4.183119,-7.230938,-3.865588,5.379771,-0.027439,0.006058,0.001919,2014,10,7,14,11,0,0,2014-10-07 14:11:00:868
15.418809,5.401618,-4.183119,15.418809,5.401618,-4.183119,-7.255030,-3.942951,5.290587,-0.027439,0.006058,0.001919,2014,10,7,14,11,0,0,2014-10-07 14:11:00:870
15.418809,5.401618,-4.183119,15.418809,5.401618,-4.183119,-7.255030,-3.942951,5.290587,-0.027439,0.006058,0.001919,2014,10,7,14,11,0,0,2014-10-07 14:11:00:872
8.556428,-9.236232,1.720384,15.418809,5.401618,-4.183119,-7.255030,-3.942951,5.290587,-0.027439,0.006058,0.001919,2014,10,7,14,11,0,0,2014-10-07 14:11:00:874
8.556428,-9.236232,1.720384,15.259295,-5.079000,-4.107253,-7.255030,-3.942951,5.290587,-0.027439,0.006058,0.001919,2014,10,7,14,11,0,0,2014-10-07 14:11:00:877
15.259295,-5.079000,-4.107253,15.259295,-5.079000,-4.107253,-6.702867,-4.157232,5.827637,-0.027439,0.006058,0.001919,2014,10,7,14,11,0,0,2014-10-07 14:11:00:891
15.259295,-5.079000,-4.107253,15.259295,-5.079000,-4.107253,-6.702867,-4.157232,5.827637,-0.027439,0.006058,0.001919,2014,10,7,14,11,55,0,2014-10-07 14:11:55:381
2.700211,10.594941,0.144999,15.259295,-5.079000,-4.107253,-6.702867,-4.157232,5.827637,-0.027439,0.006058,0.001919,2014,10,7,14,11,55,0,2014-10-07 14:11:55:483
2.700211,10.594941,0.144999,8.120832,16.186600,-5.814918,-6.702867,-4.157232,5.827637,-0.027439,0.006058,0.001919,2014,10,7,14,11,55,0,2014-10-07 14:11:55:509
8.120832,16.186600,-5.814918,8.120832,16.186600,-5.814918,-5.420622,-5.591658,5.959916,-0.027439,0.006058,0.001919,2014,10,7,14,11,55,0,2014-10-07 14:11:55:518
8.120832,16.186600,-5.814918,8.120832,16.186600,-5.814918,-5.420622,-5.591658,5.959916,-0.027439,0.006058,0.001919,2014,10,7,14,11,55,0,2014-10-07 14:11:55:566
6.248417,-6.822876,-1.028160,8.120832,16.186600,-5.814918,-5.420622,-5.591658,5.959916,-0.027439,0.006058,0.001919,2014,10,7,14,11,55,0,2014-10-07 14:11:55:568
6.248417,-6.822876,-1.028160,11.880777,-2.113930,-7.529914,-5.420622,-5.591658,5.959916,-0.027439,0.006058,0.001919,2014,10,7,14,11,55,0,2014-10-07 14:11:55:580
11.880777,-2.113930,-7.529914,11.880777,-2.113930,-7.529914,-5.632360,-4.708946,6.501754,-0.027439,0.006058,0.001919,2014,10,7,14,11,55,0,2014-10-07 14:11:55:582
11.880777,-2.113930,-7.529914,11.880777,-2.113930,-7.529914,-5.632360,-4.708946,6.501754,-0.027439,0.006058,0.001919,2014,10,7,14,11,55,0,2014-10-07 14:11:55:584
6.937948,4.262278,-1.545308,11.880777,-2.113930,-7.529914,-5.632360,-4.708946,6.501754,-0.027439,0.006058,0.001919,2014,10,7,14,11,55,0,2014-10-07 14:11:55:586
6.937948,4.262278,-1.545308,11.690886,10.106973,-7.823952,-5.632360,-4.708946,6.501754,-0.027439,0.006058,0.001919,2014,10,7,14,11,55,0,2014-10-07 14:11:55:617
11.690886,10.106973,-7.823952,11.690886,10.106973,-7.823952,-4.752939,-5.844695,6.278644,-0.027439,0.006058,0.001919,2014,10,7,14,11,55,0,2014-10-07 14:11:55:619
11.690886,10.106973,-7.823952,11.690886,10.106973,-7.823952,-4.752939,-5.844695,6.278644,-0.027445,0.006059,0.001919,2014,10,7,14,11,55,0,2014-10-07 14:11:55:638
5.386505,-13.600862,1.038036,11.690886,10.106973,-7.823952,-4.752939,-5.844695,6.278644,-0.027445,0.006059,0.001919,2014,10,7,14,11,55,0,2014-10-07 14:11:55:653
5.386505,-13.600862,1.038036,9.624841,-7.685388,-5.535694,-4.752939,-5.844695,6.278644,-0.027445,0.006059,0.001919,2014,10,7,14,11,55,0,2014-10-07 14:11:55:655
9.624841,-7.685388,-5.535694,9.624841,-7.685388,-5.535694,-4.238336,-5.915474,6.573730,-0.027445,0.006059,0.001919,2014,10,7,14,11,55,0,2014-10-07 14:11:55:662
9.624841,-7.685388,-5.535694,9.624841,-7.685388,-5.535694,-4.238336,-5.915474,6.573730,-0.027445,0.006059,0.001919,2014,10,7,14,11,55,0,2014-10-07 14:11:55:664
7.268347,0.651821,1.524059,9.624841,-7.685388,-5.535694,-4.238336,-5.915474,6.573730,-0.027445,0.006059,0.001919,2014,10,7,14,11,55,0,2014-10-07 14:11:55:671
7.268347,0.651821,1.524059,10.221147,7.959673,-4.311059,-4.238336,-5.915474,6.573730,-0.027445,0.006059,0.001919,2014,10,7,14,11,55,0,2014-10-07 14:11:55:680
10.221147,7.959673,-4.311059,10.221147,7.959673,-4.311059,-2.952799,-7.307852,5.835118,-0.027445,0.006059,0.001919,2014,10,7,14,11,55,0,2014-10-07 14:11:55:682
10.221147,7.959673,-4.311059,10.221147,7.959673,-4.311059,-2.952799,-7.307852,5.835118,-0.027445,0.006059,0.001919,2014,10,7,14,11,55,0,2014-10-07 14:11:55:684
11.817330,-14.304756,-2.550872,10.221147,7.959673,-4.311059,-2.952799,-7.307852,5.835118,-0.027445,0.006059,0.001919,2014,10,7,14,11,55,0,2014-10-07 14:11:55:686
11.817330,-14.304756,-2.550872,13.776985,-6.845621,-8.608203,-2.952799,-7.307852,5.835118,-0.027445,0.006059,0.001919,2014,10,7,14,11,55,0,2014-10-07 14:11:55:701
13.776985,-6.845621,-8.608203,13.776985,-6.845621,-8.608203,-1.959654,-7.459136,6.057330,-0.027445,0.006059,0.001919,2014,10,7,14,11,55,0,2014-10-07 14:11:55:704
13.776985,-6.845621,-8.608203,13.776985,-6.845621,-8.608203,-1.959654,-7.459136,6.057330,-0.027445,0.006059,0.001919,2014,10,7,14,11,55,0,2014-10-07 14:11:55:706
16.826000,-9.509171,-0.288352,13.776985,-6.845621,-8.608203,-1.959654,-7.459136,6.057330,-0.027445,0.006059,0.001919,2014,10,7,14,11,55,0,2014-10-07 14:11:55:708
16.826000,-9.509171,-0.288352,18.816330,-1.956063,-6.218041,-1.959654,-7.459136,6.057330,-0.027445,0.006059,0.001919,2014,10,7,14,11,55,0,2014-10-07 14:11:55:722
18.816330,-1.956063,-6.218041,18.816330,-1.956063,-6.218041,-1.990330,-7.553108,5.929689,-0.027445,0.006059,0.001919,2014,10,7,14,11,55,0,2014-10-07 14:11:55:724
18.816330,-1.956063,-6.218041,18.816330,-1.956063,-6.218041,-1.990330,-7.553108,5.929689,-0.027445,0.006059,0.001919,2014,10,7,14,11,55,0,2014-10-07 14:11:55:735
19.588310,-12.624027,-12.036699,18.816330,-1.956063,-6.218041,-1.990330,-7.553108,5.929689,-0.027445,0.006059,0.001919,2014,10,7,14,11,55,0,2014-10-07 14:11:55:742
19.588310,-12.624027,-12.036699,21.608717,-4.979191,-17.837103,-1.990330,-7.553108,5.929689,-0.027445,0.006059,0.001919,2014,10,7,14,11,55,0,2014-10-07 14:11:55:743
21.608717,-4.979191,-17.837103,21.608717,-4.979191,-17.837103,-2.020407,-7.644835,5.800403,-0.027445,0.006059,0.001919,2014,10,7,14,11,55,0,2014-10-07 14:11:55:745
21.608717,-4.979191,-17.837103,21.608717,-4.979191,-17.837103,-2.020407,-7.644835,5.800403,-0.027445,0.006059,0.001919,2014,10,7,14,11,55,0,2014-10-07 14:11:55:747
19.588310,-8.752603,-3.690512,21.608717,-4.979191,-17.837103,-2.020407,-7.644835,5.800403,-0.027445,0.006059,0.001919,2014,10,7,14,11,55,0,2014-10-07 14:11:55:786
19.588310,-8.752603,-3.690512,21.638645,-1.018134,-9.360131,-2.020407,-7.644835,5.800403,-0.027445,0.006059,0.001919,2014,10,7,14,11,55,0,2014-10-07 14:11:55:788
21.638645,-1.018134,-9.360131,21.638645,-1.018134,-9.360131,-2.050334,-7.734468,5.669619,-0.027445,0.006059,0.001919,2014,10,7,14,11,55,0,2014-10-07 14:11:55:798
21.638645,-1.018134,-9.360131,21.638645,-1.018134,-9.360131,-2.050334,-7.734468,5.669619,-0.027480,0.006069,0.001922,2014,10,7,14,11,55,0,2014-10-07 14:11:55:800
19.588310,-10.227431,2.326117,21.638645,-1.018134,-9.360131,-2.050334,-7.734468,5.669619,-0.027480,0.006069,0.001922,2014,10,7,14,11,55,0,2014-10-07 14:11:55:810
19.588310,-10.227431,2.326117,21.668123,-2.405425,-3.211223,-2.050334,-7.734468,5.669619,-0.027480,0.006069,0.001922,2014,10,7,14,11,55,0,2014-10-07 14:11:55:812
21.668123,-2.405425,-3.211223,21.668123,-2.405425,-3.211223,-2.079813,-7.822007,5.537340,-0.027480,0.006069,0.001922,2014,10,7,14,11,55,0,2014-10-07 14:11:55:814
21.668123,-2.405425,-3.211223,21.668123,-2.405425,-3.211223,-2.079813,-7.822007,5.537340,-1.728708,1.191708,-9.326599,2014,10,7,14,11,55,0,2014-10-07 14:11:55:816
19.588310,-19.521723,-5.921908,21.668123,-2.405425,-3.211223,-2.079813,-7.822007,5.537340,-1.728708,1.191708,-9.326599,2014,10,7,14,11,55,0,2014-10-07 14:11:55:818
19.588310,-19.521723,-5.921908,14.533254,-12.381763,-10.353426,-2.079813,-7.822007,5.537340,-1.728708,1.191708,-9.326599,2014,10,7,14,11,55,0,2014-10-07 14:11:55:832
14.533254,-12.381763,-10.353426,14.533254,-12.381763,-10.353426,5.055058,-7.139958,4.431518,-1.728708,1.191708,-9.326599,2014,10,7,14,11,55,0,2014-10-07 14:11:55:835
14.533254,-12.381763,-10.353426,14.533254,-12.381763,-10.353426,5.055058,-7.139958,4.431518,-0.025787,0.005602,0.001788,2014,10,7,14,11,55,0,2014-10-07 14:11:55:837
9.236382,-0.890045,-0.029778,14.533254,-12.381763,-10.353426,5.055058,-7.139958,4.431518,-0.025787,0.005602,0.001788,2014,10,7,14,11,55,0,2014-10-07 14:11:55:839
9.236382,-0.890045,-0.029778,4.181324,6.249914,-4.461296,5.055058,-7.139958,4.431518,-0.025787,0.005602,0.001788,2014,10,7,14,11,55,0,2014-10-07 14:11:55:841
4.181324,6.249914,-4.461296,4.181324,6.249914,-4.461296,5.055058,-7.139958,4.431518,-0.025787,0.005602,0.001788,2014,10,7,14,11,55,0,2014-10-07 14:11:55:843
4.181324,6.249914,-4.461296,4.181324,6.249914,-4.461296,5.055058,-7.139958,4.431518,-0.025787,0.005602,0.001788,2014,10,7,14,11,55,0,2014-10-07 14:11:55:844
5.515792,-12.978369,-3.034501,4.181324,6.249914,-4.461296,5.055058,-7.139958,4.431518,-0.025787,0.005602,0.001788,2014,10,7,14,11,55,0,2014-10-07 14:11:55:846
5.515792,-12.978369,-3.034501,0.902016,-7.502530,-9.735124,5.055058,-7.139958,4.431518,-0.025787,0.005602,0.001788,2014,10,7,14,11,55,0,2014-10-07 14:11:55:848
0.902016,-7.502530,-9.735124,0.902016,-7.502530,-9.735124,5.055058,-7.139958,4.431518,-0.025792,0.005604,0.001788,2014,10,7,14,11,55,0,2014-10-07 14:11:55:996
7.373693,-0.600346,1.897555,0.902016,-7.502530,-9.735124,5.055058,-7.139958,4.431518,-0.025792,0.005604,0.001788,2014,10,7,14,11,56,0,2014-10-07 14:11:56:10
7.373693,-0.600346,1.897555,2.592322,6.140080,-3.382109,5.055058,-7.139958,4.431518,-0.025792,0.005604,0.001788,2014,10,7,14,11,56,0,2014-10-07 14:11:56:12
2.592322,6.140080,-3.382109,2.592322,6.140080,-3.382109,4.781371,-6.740426,5.279664,-0.025792,0.005604,0.001788,2014,10,7,14,11,56,0,2014-10-07 14:11:56:14
2.592322,6.140080,-3.382109,2.592322,6.140080,-3.382109,4.781371,-6.740426,5.279664,-0.025792,0.005604,0.001788,2014,10,7,14,11,56,0,2014-10-07 14:11:56:16
19.588310,-14.958374,-1.832612,2.592322,6.140080,-3.382109,4.781371,-6.740426,5.279664,-0.025792,0.005604,0.001788,2014,10,7,14,11,56,0,2014-10-07 14:11:56:34
19.588310,-14.958374,-1.832612,14.107385,-8.598476,-6.900239,4.781371,-6.740426,5.279664,-0.025792,0.005604,0.001788,2014,10,7,14,11,56,0,2014-10-07 14:11:56:36
14.107385,-8.598476,-6.900239,14.107385,-8.598476,-6.900239,5.480926,-6.359898,5.067627,-0.025792,0.005604,0.001788,2014,10,7,14,11,56,0,2014-10-07 14:11:56:38
14.107385,-8.598476,-6.900239,14.107385,-8.598476,-6.900239,5.480926,-6.359898,5.067627,-0.025792,0.005604,0.001788,2014,10,7,14,11,56,0,2014-10-07 14:11:56:40
19.588310,-14.800356,-0.226102,14.107385,-8.598476,-6.900239,5.480926,-6.359898,5.067627,-0.025792,0.005604,0.001788,2014,10,7,14,11,56,0,2014-10-07 14:11:56:42
19.588310,-14.800356,-0.226102,14.128932,-8.366089,-5.222502,5.480926,-6.359898,5.067627,-0.025792,0.005604,0.001788,2014,10,7,14,11,56,0,2014-10-07 14:11:56:44
14.128932,-8.366089,-5.222502,14.128932,-8.366089,-5.222502,5.459378,-6.434268,4.996400,-0.025792,0.005604,0.001788,2014,10,7,14,11,56,0,2014-10-07 14:11:56:45
14.128932,-8.366089,-5.222502,14.128932,-8.366089,-5.222502,5.459378,-6.434268,4.996400,-0.025792,0.005604,0.001788,2014,10,7,14,11,56,0,2014-10-07 14:11:56:47
3.487903,2.413954,0.396390,14.128932,-8.366089,-5.222502,5.459378,-6.434268,4.996400,-0.025792,0.005604,0.001788,2014,10,7,14,11,56,0,2014-10-07 14:11:56:49
3.487903,2.413954,0.396390,-1.950227,8.921694,-4.527585,5.459378,-6.434268,4.996400,-0.025792,0.005604,0.001788,2014,10,7,14,11,56,0,2014-10-07 14:11:56:51
-1.950227,8.921694,-4.527585,-1.950227,8.921694,-4.527585,5.438130,-6.507740,4.923975,-0.025792,0.005604,0.001788,2014,10,7,14,11,56,0,2014-10-07 14:11:56:54
-1.950227,8.921694,-4.527585,-1.950227,8.921694,-4.527585,5.438130,-6.507740,4.923975,-0.025798,0.005606,0.001788,2014,10,7,14,11,56,0,2014-10-07 14:11:56:55
4.673033,-12.166735,7.274931,-1.950227,8.921694,-4.527585,5.438130,-6.507740,4.923975,-0.025798,0.005606,0.001788,2014,10,7,14,11,56,0,2014-10-07 14:11:56:57
4.673033,-12.166735,7.274931,-1.213711,-6.012738,2.412457,5.438130,-6.507740,4.923975,-0.025798,0.005606,0.001788,2014,10,7,14,11,56,0,2014-10-07 14:11:56:59
-1.213711,-6.012738,2.412457,-1.213711,-6.012738,2.412457,5.886744,-6.153996,4.862474,-0.025798,0.005606,0.001788,2014,10,7,14,11,56,0,2014-10-07 14:11:56:61
-1.213711,-6.012738,2.412457,-1.213711,-6.012738,2.412457,5.886744,-6.153996,4.862474,-0.025769,0.005598,0.001786,2014,10,7,14,11,56,0,2014-10-07 14:11:56:63
8.520514,-2.166154,0.362871,-1.213711,-6.012738,2.412457,5.886744,-6.153996,4.862474,-0.025769,0.005598,0.001786,2014,10,7,14,11,56,0,2014-10-07 14:11:56:65
8.520514,-2.166154,0.362871,3.232621,4.525789,-4.477307,5.886744,-6.153996,4.862474,-0.025769,0.005598,0.001786,2014,10,7,14,11,56,0,2014-10-07 14:11:56:69
3.232621,4.525789,-4.477307,3.232621,4.525789,-4.477307,5.287894,-6.691943,4.840178,-0.025769,0.005598,0.001786,2014,10,7,14,11,56,0,2014-10-07 14:11:56:72
3.232621,4.525789,-4.477307,3.232621,4.525789,-4.477307,5.287894,-6.691943,4.840178,-0.025769,0.005598,0.001786,2014,10,7,14,11,56,0,2014-10-07 14:11:56:76
19.588310,-19.521723,7.523929,3.232621,4.525789,-4.477307,5.287894,-6.691943,4.840178,-0.025769,0.005598,0.001786,2014,10,7,14,11,56,0,2014-10-07 14:11:56:80
19.588310,-19.521723,7.523929,13.571981,-13.109601,3.181445,5.287894,-6.691943,4.840178,-0.025769,0.005598,0.001786,2014,10,7,14,11,56,0,2014-10-07 14:11:56:84
13.571981,-13.109601,3.181445,13.571981,-13.109601,3.181445,6.016330,-6.412121,4.342484,-0.025769,0.005598,0.001786,2014,10,7,14,11,56,0,2014-10-07 14:11:56:88
13.571981,-13.109601,3.181445,13.571981,-13.109601,3.181445,6.016330,-6.412121,4.342484,-0.025769,0.005598,0.001786,2014,10,7,14,11,56,0,2014-10-07 14:11:56:107
19.588310,-13.617620,1.231966,13.571981,-13.109601,3.181445,6.016330,-6.412121,4.342484,-0.025769,0.005598,0.001786,2014,10,7,14,11,56,0,2014-10-07 14:11:56:109
19.588310,-13.617620,1.231966,13.591285,-7.140557,-3.040337,6.016330,-6.412121,4.342484,-0.025769,0.005598,0.001786,2014,10,7,14,11,56,0,2014-10-07 14:11:56:160
13.591285,-7.140557,-3.040337,13.591285,-7.140557,-3.040337,5.997026,-6.477064,4.272303,-0.025769,0.005598,0.001786,2014,10,7,14,11,56,0,2014-10-07 14:11:56:165
13.591285,-7.140557,-3.040337,13.591285,-7.140557,-3.040337,5.997026,-6.477064,4.272303,-0.025810,0.005609,0.001789,2014,10,7,14,11,56,0,2014-10-07 14:11:56:166
4.993856,3.306991,1.557578,13.591285,-7.140557,-3.040337,5.997026,-6.477064,4.272303,-0.025810,0.005609,0.001789,2014,10,7,14,11,56,0,2014-10-07 14:11:56:169
4.993856,3.306991,1.557578,-0.984017,9.848100,-2.643348,5.997026,-6.477064,4.272303,-0.025810,0.005609,0.001789,2014,10,7,14,11,56,0,2014-10-07 14:11:56:171
-0.984017,9.848100,-2.643348,-0.984017,9.848100,-2.643348,5.977873,-6.541109,4.200926,-0.025810,0.005609,0.001789,2014,10,7,14,11,56,0,2014-10-07 14:11:56:173
-0.984017,9.848100,-2.643348,-0.984017,9.848100,-2.643348,5.977873,-6.541109,4.200926,-0.025828,0.005614,0.001791,2014,10,7,14,11,56,0,2014-10-07 14:11:56:175
5.680992,-12.920908,3.738696,-0.984017,9.848100,-2.643348,5.977873,-6.541109,4.200926,-0.025828,0.005614,0.001791,2014,10,7,14,11,56,0,2014-10-07 14:11:56:184
5.680992,-12.920908,3.738696,-0.867150,-6.987178,-0.513556,5.977873,-6.541109,4.200926,-0.025828,0.005614,0.001791,2014,10,7,14,11,56,0,2014-10-07 14:11:56:186
-0.867150,-6.987178,-0.513556,-0.867150,-6.987178,-0.513556,6.548141,-5.933730,4.252252,-0.025828,0.005614,0.001791,2014,10,7,14,11,56,0,2014-10-07 14:11:56:188
-0.867150,-6.987178,-0.513556,-0.867150,-6.987178,-0.513556,6.548141,-5.933730,4.252252,-0.025828,0.005614,0.001791,2014,10,7,14,11,56,0,2014-10-07 14:11:56:196
5.944354,0.105943,4.193594,-0.867150,-6.987178,-0.513556,6.548141,-5.933730,4.252252,-0.025828,0.005614,0.001791,2014,10,7,14,11,56,0,2014-10-07 14:11:56:198
5.944354,0.105943,4.193594,-0.083797,6.796241,0.311396,6.548141,-5.933730,4.252252,-0.025828,0.005614,0.001791,2014,10,7,14,11,56,0,2014-10-07 14:11:56:218
-0.083797,6.796241,0.311396,-0.083797,6.796241,0.311396,6.028151,-6.690298,3.882198,-0.025828,0.005614,0.001791,2014,10,7,14,11,56,0,2014-10-07 14:11:56:228
-0.083797,6.796241,0.311396,-0.083797,6.796241,0.311396,6.028151,-6.690298,3.882198,-0.025828,0.005614,0.001791,2014,10,7,14,11,56,0,2014-10-07 14:11:56:231
19.588310,-8.819640,1.054796,-0.083797,6.796241,0.311396,6.028151,-6.690298,3.882198,-0.025828,0.005614,0.001791,2014,10,7,14,11,56,0,2014-10-07 14:11:56:240
19.588310,-8.819640,1.054796,13.183372,-2.642900,-3.067571,6.028151,-6.690298,3.882198,-0.025828,0.005614,0.001791,2014,10,7,14,11,56,0,2014-10-07 14:11:56:242
13.183372,-2.642900,-3.067571,13.183372,-2.642900,-3.067571,6.404938,-6.176741,4.122366,-0.025828,0.005614,0.001791,2014,10,7,14,11,56,0,2014-10-07 14:11:56:245
13.183372,-2.642900,-3.067571,13.183372,-2.642900,-3.067571,6.404938,-6.176741,4.122366,-0.025828,0.005614,0.001791,2014,10,7,14,11,56,0,2014-10-07 14:11:56:246
19.588310,-19.521723,3.094655,13.183372,-2.642900,-3.067571,6.404938,-6.176741,4.122366,-0.025828,0.005614,0.001791,2014,10,7,14,11,56,0,2014-10-07 14:11:56:248
19.588310,-19.521723,3.094655,12.188432,-13.830256,0.091728,6.404938,-6.176741,4.122366,-0.025828,0.005614,0.001791,2014,10,7,14,11,56,0,2014-10-07 14:11:56:260
12.188432,-13.830256,0.091728,12.188432,-13.830256,0.091728,7.399879,-5.691466,3.002928,-0.025828,0.005614,0.001791,2014,10,7,14,11,56,0,2014-10-07 14:11:56:262
12.188432,-13.830256,0.091728,12.188432,-13.830256,0.091728,7.399879,-5.691466,3.002928,-0.025828,0.005614,0.001791,2014,10,7,14,11,56,0,2014-10-07 14:11:56:264
19.588310,-3.459023,1.406743,12.188432,-13.830256,0.091728,7.399879,-5.691466,3.002928,-0.025828,0.005614,0.001791,2014,10,7,14,11,56,0,2014-10-07 14:11:56:266
19.588310,-3.459023,1.406743,12.202947,2.280477,-1.540070,7.399879,-5.691466,3.002928,-0.025828,0.005614,0.001791,2014,10,7,14,11,56,0,2014-10-07 14:11:56:275
12.202947,2.280477,-1.540070,12.202947,2.280477,-1.540070,7.385364,-5.739500,2.946813,-0.025828,0.005614,0.001791,2014,10,7,14,11,56,0,2014-10-07 14:11:56:277
12.202947,2.280477,-1.540070,12.202947,2.280477,-1.540070,7.385364,-5.739500,2.946813,-0.025828,0.005614,0.001791,2014,10,7,14,11,56,0,2014-10-07 14:11:56:279
10.115053,-10.679935,-0.599598,12.202947,2.280477,-1.540070,7.385364,-5.739500,2.946813,-0.025828,0.005614,0.001791,2014,10,7,14,11,56,0,2014-10-07 14:11:56:291
10.115053,-10.679935,-0.599598,1.836502,-5.957971,-2.909853,7.385364,-5.739500,2.946813,-0.025828,0.005614,0.001791,2014,10,7,14,11,56,0,2014-10-07 14:11:56:294
1.836502,-5.957971,-2.909853,1.836502,-5.957971,-2.909853,8.278551,-4.721964,2.310255,-0.025828,0.005614,0.001791,2014,10,7,14,11,56,0,2014-10-07 14:11:56:296
1.836502,-5.957971,-2.909853,1.836502,-5.957971,-2.909853,8.278551,-4.721964,2.310255,-0.025828,0.005614,0.001791,2014,10,7,14,11,56,0,2014-10-07 14:11:56:297
2.640356,7.247847,2.864812,1.836502,-5.957971,-2.909853,8.278551,-4.721964,2.310255,-0.025828,0.005614,0.001791,2014,10,7,14,11,56,0,2014-10-07 14:11:56:299
2.640356,7.247847,2.864812,-5.396531,12.603527,1.163283,8.278551,-4.721964,2.310255,-0.025828,0.005614,0.001791,2014,10,7,14,11,56,0,2014-10-07 14:11:56:321
-5.396531,12.603527,1.163283,-5.396531,12.603527,1.163283,8.036886,-5.355680,1.701529,-0.025828,0.005614,0.001791,2014,10,7,14,11,56,0,2014-10-07 14:11:56:329
-5.396531,12.603527,1.163283,-5.396531,12.603527,1.163283,8.036886,-5.355680,1.701529,-0.025828,0.005614,0.001791,2014,10,7,14,11,56,0,2014-10-07 14:11:56:331
11.477354,-11.194689,6.556671,-5.396531,12.603527,1.163283,8.036886,-5.355680,1.701529,-0.025828,0.005614,0.001791,2014,10,7,14,11,56,0,2014-10-07 14:11:56:390
11.477354,-11.194689,6.556671,2.954295,-6.822876,4.455460,8.036886,-5.355680,1.701529,-0.025828,0.005614,0.001791,2014,10,7,14,11,56,0,2014-10-07 14:11:56:392
2.954295,-6.822876,4.455460,2.954295,-6.822876,4.455460,8.523059,-4.371812,2.101211,-0.025828,0.005614,0.001791,2014,10,7,14,11,56,0,2014-10-07 14:11:56:394
2.954295,-6.822876,4.455460,2.954295,-6.822876,4.455460,8.523059,-4.371812,2.101211,-0.025828,0.005614,0.001791,2014,10,7,14,11,56,0,2014-10-07 14:11:56:396
16.359131,-6.573879,-0.211737,2.954295,-6.822876,4.455460,8.523059,-4.371812,2.101211,-0.025828,0.005614,0.001791,2014,10,7,14,11,56,0,2014-10-07 14:11:56:398
16.359131,-6.573879,-0.211737,8.288427,-1.607706,-2.735675,8.523059,-4.371812,2.101211,-0.025828,0.005614,0.001791,2014,10,7,14,11,56,0,2014-10-07 14:11:56:448
8.288427,-1.607706,-2.735675,8.288427,-1.607706,-2.735675,8.070704,-4.966173,2.523937,-0.025828,0.005614,0.001791,2014,10,7,14,11,56,0,2014-10-07 14:11:56:458
8.288427,-1.607706,-2.735675,8.288427,-1.607706,-2.735675,8.070704,-4.966173,2.523937,-0.025845,0.005619,0.001792,2014,10,7,14,11,56,0,2014-10-07 14:11:56:472
19.588310,-3.403956,-15.477167,8.288427,-1.607706,-2.735675,8.070704,-4.966173,2.523937,-0.025845,0.005619,0.001792,2014,10,7,14,11,56,0,2014-10-07 14:11:56:475
19.588310,-3.403956,-15.477167,11.169550,1.290325,-17.282394,8.070704,-4.966173,2.523937,-0.025845,0.005619,0.001792,2014,10,7,14,11,56,0,2014-10-07 14:11:56:489
11.169550,1.290325,-17.282394,11.169550,1.290325,-17.282394,8.418761,-4.694282,1.805228,-0.025845,0.005619,0.001792,2014,10,7,14,11,56,0,2014-10-07 14:11:56:492
11.169550,1.290325,-17.282394,11.169550,1.290325,-17.282394,8.418761,-4.694282,1.805228,-0.025845,0.005619,0.001792,2014,10,7,14,11,56,0,2014-10-07 14:11:56:493
19.588310,-12.552201,-3.956269,11.169550,1.290325,-17.282394,8.418761,-4.694282,1.805228,-0.025845,0.005619,0.001792,2014,10,7,14,11,56,0,2014-10-07 14:11:56:513
19.588310,-12.552201,-3.956269,11.179575,-7.825299,-5.722291,8.418761,-4.694282,1.805228,-0.025845,0.005619,0.001792,2014,10,7,14,11,56,0,2014-10-07 14:11:56:524
11.179575,-7.825299,-5.722291,11.179575,-7.825299,-5.722291,8.408735,-4.726902,1.766023,-0.025845,0.005619,0.001792,2014,10,7,14,11,56,0,2014-10-07 14:11:56:526
11.179575,-7.825299,-5.722291,11.179575,-7.825299,-5.722291,8.408735,-4.726902,1.766023,-0.025781,0.005601,0.001787,2014,10,7,14,11,56,0,2014-10-07 14:11:56:541
9.250747,3.086725,-0.530166,11.179575,-7.825299,-5.722291,8.408735,-4.726902,1.766023,-0.025781,0.005601,0.001787,2014,10,7,14,11,56,0,2014-10-07 14:11:56:543
9.250747,3.086725,-0.530166,0.851887,7.845649,-2.256535,8.408735,-4.726902,1.766023,-0.025781,0.005601,0.001787,2014,10,7,14,11,56,0,2014-10-07 14:11:56:557
0.851887,7.845649,-2.256535,0.851887,7.845649,-2.256535,8.398860,-4.758925,1.726369,-0.025781,0.005601,0.001787,2014,10,7,14,11,56,0,2014-10-07 14:11:56:559
0.851887,7.845649,-2.256535,0.851887,7.845649,-2.256535,8.398860,-4.758925,1.726369,-0.025781,0.005601,0.001787,2014,10,7,14,11,56,0,2014-10-07 14:11:56:642
17.053450,-9.303269,2.520047,0.851887,7.845649,-2.256535,8.398860,-4.758925,1.726369,-0.025781,0.005601,0.001787,2014,10,7,14,11,56,0,2014-10-07 14:11:56:644
17.053450,-9.303269,2.520047,8.143129,-5.466561,1.086369,8.398860,-4.758925,1.726369,-0.025781,0.005601,0.001787,2014,10,7,14,11,56,0,2014-10-07 14:11:56:646
8.143129,-5.466561,1.086369,8.143129,-5.466561,1.086369,8.910321,-3.836708,1.433678,-0.025781,0.005601,0.001787,2014,10,7,14,11,56,0,2014-10-07 14:11:56:647
8.143129,-5.466561,1.086369,8.143129,-5.466561,1.086369,8.910321,-3.836708,1.433678,-0.025822,0.005612,0.001790,2014,10,7,14,11,56,0,2014-10-07 14:11:56:664
-0.326060,10.032304,1.495329,8.143129,-5.466561,1.086369,8.910321,-3.836708,1.433678,-0.025822,0.005612,0.001790,2014,10,7,14,11,56,0,2014-10-07 14:11:56:669
-0.326060,10.032304,1.495329,-9.126697,14.137911,0.130334,8.910321,-3.836708,1.433678,-0.025822,0.005612,0.001790,2014,10,7,14,11,56,0,2014-10-07 14:11:56:683
-9.126697,14.137911,0.130334,-9.126697,14.137911,0.130334,8.800636,-4.105607,1.364994,-0.025822,0.005612,0.001790,2014,10,7,14,11,56,0,2014-10-07 14:11:56:691
-9.126697,14.137911,0.130334,-9.126697,14.137911,0.130334,8.800636,-4.105607,1.364994,-0.025822,0.005612,0.001790,2014,10,7,14,11,56,0,2014-10-07 14:11:56:695
8.441506,-9.619304,4.143316,-9.126697,14.137911,0.130334,8.800636,-4.105607,1.364994,-0.025822,0.005612,0.001790,2014,10,7,14,11,56,0,2014-10-07 14:11:56:696
8.441506,-9.619304,4.143316,-0.793678,-6.753295,2.510470,8.800636,-4.105607,1.364994,-0.025822,0.005612,0.001790,2014,10,7,14,11,56,0,2014-10-07 14:11:56:713
-0.793678,-6.753295,2.510470,-0.793678,-6.753295,2.510470,9.235184,-2.866009,1.632846,-0.025822,0.005612,0.001790,2014,10,7,14,11,56,0,2014-10-07 14:11:56:730
-0.793678,-6.753295,2.510470,-0.793678,-6.753295,2.510470,9.235184,-2.866009,1.632846,-0.023699,0.005027,0.001622,2014,10,7,14,11,56,0,2014-10-07 14:11:56:739
11.434258,-6.727108,0.808193,-0.793678,-6.753295,2.510470,9.235184,-2.866009,1.632846,-0.023699,0.005027,0.001622,2014,10,7,14,11,56,0,2014-10-07 14:11:56:774
11.434258,-6.727108,0.808193,-0.793678,-6.753295,2.510470,9.235184,-2.866009,1.632846,-0.023699,0.005027,0.001622,2014,10,7,14,11,56,0,2014-10-07 14:11:56:776
19.588310,-19.521723,-4.198083,-0.793678,-6.753295,2.510470,9.235184,-2.866009,1.632846,-0.023699,0.005027,0.001622,2014,10,7,14,11,56,0,2014-10-07 14:11:56:795
19.588310,-19.521723,-4.198083,27.279684,-13.748703,-2.278083,9.235184,-2.866009,1.632846,-0.023699,0.005027,0.001622,2014,10,7,14,11,56,0,2014-10-07 14:11:56:824
27.279684,-13.748703,-2.278083,27.279684,-13.748703,-2.278083,-7.691373,-5.773019,-1.920000,-0.023699,0.005027,0.001622,2014,10,7,14,11,56,0,2014-10-07 14:11:56:826
27.279684,-13.748703,-2.278083,27.279684,-13.748703,-2.278083,-7.691373,-5.773019,-1.920000,-0.023734,0.005037,0.001624,2014,10,7,14,11,56,0,2014-10-07 14:11:56:828
19.588310,-18.971056,1.009306,27.279684,-13.748703,-2.278083,-7.691373,-5.773019,-1.920000,-0.023734,0.005037,0.001624,2014,10,7,14,11,56,0,2014-10-07 14:11:56:843
19.588310,-18.971056,1.009306,27.279385,-13.230209,3.025223,-7.691373,-5.773019,-1.920000,-0.023734,0.005037,0.001624,2014,10,7,14,11,56,0,2014-10-07 14:11:56:845
27.279385,-13.230209,3.025223,27.279385,-13.230209,3.025223,-7.691074,-5.740847,-2.015918,-0.023734,0.005037,0.001624,2014,10,7,14,11,56,0,2014-10-07 14:11:56:861
27.279385,-13.230209,3.025223,27.279385,-13.230209,3.025223,-7.691074,-5.740847,-2.015918,-0.023699,0.005027,0.001622,2014,10,7,14,11,56,0,2014-10-07 14:11:56:863
1.962796,4.063559,1.004517,27.279385,-13.230209,3.025223,-7.691074,-5.740847,-2.015918,-0.023699,0.005027,0.001622,2014,10,7,14,11,56,0,2014-10-07 14:11:56:878
1.962796,4.063559,1.004517,9.653122,9.770886,3.115904,-7.691074,-5.740847,-2.015918,-0.023699,0.005027,0.001622,2014,10,7,14,11,56,0,2014-10-07 14:11:56:880
9.653122,9.770886,3.115904,9.653122,9.770886,3.115904,-7.690325,-5.707328,-2.111387,-0.023699,0.005027,0.001622,2014,10,7,14,11,56,0,2014-10-07 14:11:56:888
9.653122,9.770886,3.115904,9.653122,9.770886,3.115904,-7.690325,-5.707328,-2.111387,-0.023699,0.005027,0.001622,2014,10,7,14,11,56,0,2014-10-07 14:11:56:904
3.760842,-14.996681,5.831228,9.653122,9.770886,3.115904,-7.690325,-5.707328,-2.111387,-0.023699,0.005027,0.001622,2014,10,7,14,11,56,0,2014-10-07 14:11:56:906
3.760842,-14.996681,5.831228,11.635820,-9.579500,8.024766,-7.690325,-5.707328,-2.111387,-0.023699,0.005027,0.001622,2014,10,7,14,11,56,0,2014-10-07 14:11:56:908
11.635820,-9.579500,8.024766,11.635820,-9.579500,8.024766,-7.874978,-5.417181,-2.193538,-0.023699,0.005027,0.001622,2014,10,7,14,11,56,0,2014-10-07 14:11:56:928
11.635820,-9.579500,8.024766,11.635820,-9.579500,8.024766,-7.874978,-5.417181,-2.193538,-0.023699,0.005027,0.001622,2014,10,7,14,11,56,0,2014-10-07 14:11:56:930
11.776629,-0.028132,3.137751,11.635820,-9.579500,8.024766,-7.874978,-5.417181,-2.193538,-0.023699,0.005027,0.001622,2014,10,7,14,11,56,0,2014-10-07 14:11:56:939
11.776629,-0.028132,3.137751,19.650261,5.352986,5.423017,-7.874978,-5.417181,-2.193538,-0.023699,0.005027,0.001622,2014,10,7,14,11,56,0,2014-10-07 14:11:56:943
19.650261,5.352986,5.423017,19.650261,5.352986,5.423017,-7.873631,-5.381118,-2.285265,-0.023699,0.005027,0.001622,2014,10,7,14,11,56,0,2014-10-07 14:11:56:945
19.650261,5.352986,5.423017,19.650261,5.352986,5.423017,-7.873631,-5.381118,-2.285265,-0.023734,0.005037,0.001624,2014,10,7,14,11,56,0,2014-10-07 14:11:56:960
18.197878,1.611896,-1.054496,19.650261,5.352986,5.423017,-7.873631,-5.381118,-2.285265,-0.023734,0.005037,0.001624,2014,10,7,14,11,56,0,2014-10-07 14:11:56:972
18.197878,1.611896,-1.054496,25.491665,7.763798,1.210119,-7.873631,-5.381118,-2.285265,-0.023734,0.005037,0.001624,2014,10,7,14,11,56,0,2014-10-07 14:11:56:987
25.491665,7.763798,1.210119,25.491665,7.763798,1.210119,-7.293786,-6.151901,-2.264616,-0.023734,0.005037,0.001624,2014,10,7,14,11,56,0,2014-10-07 14:11:56:989
25.491665,7.763798,1.210119,25.491665,7.763798,1.210119,-7.293786,-6.151901,-2.264616,-0.023734,0.005037,0.001624,2014,10,7,14,11,57,0,2014-10-07 14:11:57:26
19.588310,-19.521723,-6.276250,25.491665,7.763798,1.210119,-7.293786,-6.151901,-2.264616,-0.023734,0.005037,0.001624,2014,10,7,14,11,57,0,2014-10-07 14:11:57:28
19.588310,-19.521723,-6.276250,26.881050,-13.406332,-3.911976,-7.293786,-6.151901,-2.264616,-0.023734,0.005037,0.001624,2014,10,7,14,11,57,0,2014-10-07 14:11:57:44
26.881050,-13.406332,-3.911976,26.881050,-13.406332,-3.911976,-7.292738,-6.115390,-2.364274,-0.023734,0.005037,0.001624,2014,10,7,14,11,57,0,2014-10-07 14:11:57:46
26.881050,-13.406332,-3.911976,26.881050,-13.406332,-3.911976,-7.292738,-6.115390,-2.364274,-0.023734,0.005037,0.001624,2014,10,7,14,11,57,0,2014-10-07 14:11:57:71
19.588310,-5.723938,-6.089502,26.881050,-13.406332,-3.911976,-7.292738,-6.115390,-2.364274,-0.023734,0.005037,0.001624,2014,10,7,14,11,57,0,2014-10-07 14:11:57:75
19.588310,-5.723938,-6.089502,26.879702,0.353893,-3.626019,-7.292738,-6.115390,-2.364274,-0.023734,0.005037,0.001624,2014,10,7,14,11,57,0,2014-10-07 14:11:57:77
26.879702,0.353893,-3.626019,26.879702,0.353893,-3.626019,-7.291392,-6.077831,-2.463484,-0.023734,0.005037,0.001624,2014,10,7,14,11,57,0,2014-10-07 14:11:57:90
26.879702,0.353893,-3.626019,26.879702,0.353893,-3.626019,-7.291392,-6.077831,-2.463484,-0.023722,0.005034,0.001623,2014,10,7,14,11,57,0,2014-10-07 14:11:57:92
14.201956,-8.000824,0.760309,26.879702,0.353893,-3.626019,-7.291392,-6.077831,-2.463484,-0.023722,0.005034,0.001623,2014,10,7,14,11,57,0,2014-10-07 14:11:57:94
14.201956,-8.000824,0.760309,21.491701,-1.962048,3.322553,-7.291392,-6.077831,-2.463484,-0.023722,0.005034,0.001623,2014,10,7,14,11,57,0,2014-10-07 14:11:57:108
21.491701,-1.962048,3.322553,21.491701,-1.962048,3.322553,-7.289746,-6.038775,-2.562245,-0.023722,0.005034,0.001623,2014,10,7,14,11,57,0,2014-10-07 14:11:57:111
21.491701,-1.962048,3.322553,21.491701,-1.962048,3.322553,-7.289746,-6.038775,-2.562245,-0.023722,0.005034,0.001623,2014,10,7,14,11,57,0,2014-10-07 14:11:57:115
3.820697,7.923012,2.077120,21.491701,-1.962048,3.322553,-7.289746,-6.038775,-2.562245,-0.023722,0.005034,0.001623,2014,10,7,14,11,57,0,2014-10-07 14:11:57:120
3.820697,7.923012,2.077120,11.108498,13.921535,4.737526,-7.289746,-6.038775,-2.562245,-0.023722,0.005034,0.001623,2014,10,7,14,11,57,0,2014-10-07 14:11:57:126
11.108498,13.921535,4.737526,11.108498,13.921535,4.737526,-7.287800,-5.998523,-2.660407,-0.023722,0.005034,0.001623,2014,10,7,14,11,57,0,2014-10-07 14:11:57:128
11.108498,13.921535,4.737526,11.108498,13.921535,4.737526,-7.287800,-5.998523,-2.660407,-0.023722,0.005034,0.001623,2014,10,7,14,11,57,0,2014-10-07 14:11:57:133
8.147019,-15.487493,-2.572420,11.108498,13.921535,4.737526,-7.287800,-5.998523,-2.660407,-0.023722,0.005034,0.001623,2014,10,7,14,11,57,0,2014-10-07 14:11:57:135
8.147019,-15.487493,-2.572420,15.765220,-9.977836,0.216975,-7.287800,-5.998523,-2.660407,-0.023722,0.005034,0.001623,2014,10,7,14,11,57,0,2014-10-07 14:11:57:206
15.765220,-9.977836,0.216975,15.765220,-9.977836,0.216975,-7.618200,-5.509656,-2.789395,-0.023722,0.005034,0.001623,2014,10,7,14,11,57,0,2014-10-07 14:11:57:210
15.765220,-9.977836,0.216975,15.765220,-9.977836,0.216975,-7.618200,-5.509656,-2.789395,-0.023705,0.005029,0.001622,2014,10,7,14,11,57,0,2014-10-07 14:11:57:221
19.588310,-9.923368,-1.925986,15.765220,-9.977836,0.216975,-7.618200,-5.509656,-2.789395,-0.023705,0.005029,0.001622,2014,10,7,14,11,57,0,2014-10-07 14:11:57:222
19.588310,-9.923368,-1.925986,27.203369,-4.457106,0.955586,-7.618200,-5.509656,-2.789395,-0.023705,0.005029,0.001622,2014,10,7,14,11,57,0,2014-10-07 14:11:57:224
27.203369,-4.457106,0.955586,27.203369,-4.457106,0.955586,-7.615058,-5.466262,-2.881571,-0.023705,0.005029,0.001622,2014,10,7,14,11,57,0,2014-10-07 14:11:57:226
27.203369,-4.457106,0.955586,27.203369,-4.457106,0.955586,-7.615058,-5.466262,-2.881571,-0.023705,0.005029,0.001622,2014,10,7,14,11,57,0,2014-10-07 14:11:57:228
19.588310,-16.854582,0.382025,27.203369,-4.457106,0.955586,-7.615058,-5.466262,-2.881571,-0.023705,0.005029,0.001622,2014,10,7,14,11,57,0,2014-10-07 14:11:57:242
19.588310,-16.854582,0.382025,27.200077,-11.432912,3.355174,-7.615058,-5.466262,-2.881571,-0.023705,0.005029,0.001622,2014,10,7,14,11,57,0,2014-10-07 14:11:57:244
27.200077,-11.432912,3.355174,27.200077,-11.432912,3.355174,-7.611766,-5.421670,-2.973150,-0.023705,0.005029,0.001622,2014,10,7,14,11,57,0,2014-10-07 14:11:57:258
27.200077,-11.432912,3.355174,27.200077,-11.432912,3.355174,-7.611766,-5.421670,-2.973150,-0.023757,0.005043,0.001626,2014,10,7,14,11,57,0,2014-10-07 14:11:57:260
19.588310,-6.889914,-1.868525,27.200077,-11.432912,3.355174,-7.611766,-5.421670,-2.973150,-0.023757,0.005043,0.001626,2014,10,7,14,11,57,0,2014-10-07 14:11:57:262
19.588310,-6.889914,-1.868525,27.196486,-1.514033,1.195754,-7.611766,-5.421670,-2.973150,-0.023757,0.005043,0.001626,2014,10,7,14,11,57,0,2014-10-07 14:11:57:264
27.196486,-1.514033,1.195754,27.196486,-1.514033,1.195754,-7.608174,-5.375881,-3.064279,-0.023757,0.005043,0.001626,2014,10,7,14,11,57,0,2014-10-07 14:11:57:266
27.196486,-1.514033,1.195754,27.196486,-1.514033,1.195754,-7.608174,-5.375881,-3.064279,-0.023722,0.005034,0.001623,2014,10,7,14,11,57,0,2014-10-07 14:11:57:268
0.322768,7.077859,2.443433,27.196486,-1.514033,1.195754,-7.608174,-5.375881,-3.064279,-0.023722,0.005034,0.001623,2014,10,7,14,11,57,0,2014-10-07 14:11:57:298
0.322768,7.077859,2.443433,7.926903,12.406754,5.598093,-7.608174,-5.375881,-3.064279,-0.023722,0.005034,0.001623,2014,10,7,14,11,57,0,2014-10-07 14:11:57:300
7.926903,12.406754,5.598093,7.926903,12.406754,5.598093,-7.604134,-5.328895,-3.154660,-0.023722,0.005034,0.001623,2014,10,7,14,11,57,0,2014-10-07 14:11:57:302
7.926903,12.406754,5.598093,7.926903,12.406754,5.598093,-7.604134,-5.328895,-3.154660,-0.023769,0.005047,0.001627,2014,10,7,14,11,57,0,2014-10-07 14:11:57:341
5.017798,-13.229760,1.440262,7.926903,12.406754,5.598093,-7.604134,-5.328895,-3.154660,-0.023769,0.005047,0.001627,2014,10,7,14,11,57,0,2014-10-07 14:11:57:343
5.017798,-13.229760,1.440262,13.105710,-8.636185,4.547936,-7.604134,-5.328895,-3.154660,-0.023769,0.005047,0.001627,2014,10,7,14,11,57,0,2014-10-07 14:11:57:344
13.105710,-8.636185,4.547936,13.105710,-8.636185,4.547936,-8.087913,-4.593575,-3.107674,-0.023769,0.005047,0.001627,2014,10,7,14,11,57,0,2014-10-07 14:11:57:363
13.105710,-8.636185,4.547936,13.105710,-8.636185,4.547936,-8.087913,-4.593575,-3.107674,-0.023757,0.005043,0.001626,2014,10,7,14,11,57,0,2014-10-07 14:11:57:365
16.335190,-5.465364,0.104297,13.105710,-8.636185,4.547936,-8.087913,-4.593575,-3.107674,-0.023757,0.005043,0.001626,2014,10,7,14,11,57,0,2014-10-07 14:11:57:367
16.335190,-5.465364,0.104297,23.300671,0.831835,2.932747,-8.087913,-4.593575,-3.107674,-0.023757,0.005043,0.001626,2014,10,7,14,11,57,0,2014-10-07 14:11:57:369
23.300671,0.831835,2.932747,23.300671,0.831835,2.932747,-6.965481,-6.297199,-2.828450,-0.023757,0.005043,0.001626,2014,10,7,14,11,57,0,2014-10-07 14:11:57:380
23.300671,0.831835,2.932747,23.300671,0.831835,2.932747,-6.965481,-6.297199,-2.828450,-0.023757,0.005043,0.001626,2014,10,7,14,11,57,0,2014-10-07 14:11:57:382
19.588310,4.063559,0.377236,23.300671,0.831835,2.932747,-6.965481,-6.297199,-2.828450,-0.023757,0.005043,0.001626,2014,10,7,14,11,57,0,2014-10-07 14:11:57:384
19.588310,4.063559,0.377236,26.551397,10.317364,3.306243,-6.965481,-6.297199,-2.828450,-0.023757,0.005043,0.001626,2014,10,7,14,11,57,0,2014-10-07 14:11:57:386
26.551397,10.317364,3.306243,26.551397,10.317364,3.306243,-6.963087,-6.253805,-2.929007,-0.023757,0.005043,0.001626,2014,10,7,14,11,57,0,2014-10-07 14:11:57:396
26.551397,10.317364,3.306243,26.551397,10.317364,3.306243,-6.963087,-6.253805,-2.929007,-0.023757,0.005043,0.001626,2014,10,7,14,11,57,0,2014-10-07 14:11:57:398
19.588310,-6.796540,-6.762273,26.551397,10.317364,3.306243,-6.963087,-6.253805,-2.929007,-0.023757,0.005043,0.001626,2014,10,7,14,11,57,0,2014-10-07 14:11:57:400
19.588310,-6.796540,-6.762273,26.548704,-0.587477,-3.733309,-6.963087,-6.253805,-2.929007,-0.023757,0.005043,0.001626,2014,10,7,14,11,57,0,2014-10-07 14:11:57:402
26.548704,-0.587477,-3.733309,26.548704,-0.587477,-3.733309,-6.960393,-6.209063,-3.028965,-0.023757,0.005043,0.001626,2014,10,7,14,11,57,0,2014-10-07 14:11:57:404
26.548704,-0.587477,-3.733309,26.548704,-0.587477,-3.733309,-6.960393,-6.209063,-3.028965,-0.023757,0.005043,0.001626,2014,10,7,14,11,57,0,2014-10-07 14:11:57:406
10.222793,3.244742,0.980575,26.548704,-0.587477,-3.733309,-6.960393,-6.209063,-3.028965,-0.023757,0.005043,0.001626,2014,10,7,14,11,57,0,2014-10-07 14:11:57:408
10.222793,3.244742,0.980575,17.180042,9.407866,4.108899,-6.960393,-6.209063,-3.028965,-0.023757,0.005043,0.001626,2014,10,7,14,11,57,0,2014-10-07 14:11:57:434
17.180042,9.407866,4.108899,17.180042,9.407866,4.108899,-6.957251,-6.163124,-3.128324,-0.023757,0.005043,0.001626,2014,10,7,14,11,57,0,2014-10-07 14:11:57:436
17.180042,9.407866,4.108899,17.180042,9.407866,4.108899,-6.957251,-6.163124,-3.128324,-0.023757,0.005043,0.001626,2014,10,7,14,11,57,0,2014-10-07 14:11:57:438
7.534104,-11.869853,0.379631,17.180042,9.407866,4.108899,-6.957251,-6.163124,-3.128324,-0.023757,0.005043,0.001626,2014,10,7,14,11,57,0,2014-10-07 14:11:57:464
7.534104,-11.869853,0.379631,13.956250,-5.360917,3.923797,-6.957251,-6.163124,-3.128324,-0.023757,0.005043,0.001626,2014,10,7,14,11,57,0,2014-10-07 14:11:57:466
13.956250,-5.360917,3.923797,13.956250,-5.360917,3.923797,-6.422147,-6.508936,-3.544167,-0.023757,0.005043,0.001626,2014,10,7,14,11,57,0,2014-10-07 14:11:57:468
13.956250,-5.360917,3.923797,13.956250,-5.360917,3.923797,-6.422147,-6.508936,-3.544167,-0.023740,0.005039,0.001625,2014,10,7,14,11,57,0,2014-10-07 14:11:57:480
6.269965,1.166575,4.696376,13.956250,-5.360917,3.923797,-6.422147,-6.508936,-3.544167,-0.023740,0.005039,0.001625,2014,10,7,14,11,57,0,2014-10-07 14:11:57:482
6.269965,1.166575,4.696376,11.162517,8.974216,8.054394,-6.422147,-6.508936,-3.544167,-0.023740,0.005039,0.001625,2014,10,7,14,11,57,0,2014-10-07 14:11:57:484
11.162517,8.974216,8.054394,11.162517,8.974216,8.054394,-4.892551,-7.807642,-3.358017,-0.023740,0.005039,0.001625,2014,10,7,14,11,57,0,2014-10-07 14:11:57:486
11.162517,8.974216,8.054394,11.162517,8.974216,8.054394,-4.892551,-7.807642,-3.358017,-0.023740,0.005039,0.001625,2014,10,7,14,11,57,0,2014-10-07 14:11:57:488
15.075839,-7.893085,-0.154276,11.162517,8.974216,8.054394,-4.892551,-7.807642,-3.358017,-0.023740,0.005039,0.001625,2014,10,7,14,11,57,0,2014-10-07 14:11:57:510
15.075839,-7.893085,-0.154276,19.436279,0.340874,2.905364,-4.892551,-7.807642,-3.358017,-0.023740,0.005039,0.001625,2014,10,7,14,11,57,0,2014-10-07 14:11:57:513
19.436279,0.340874,2.905364,19.436279,0.340874,2.905364,-4.360440,-8.233959,-3.059640,-0.023740,0.005039,0.001625,2014,10,7,14,11,57,0,2014-10-07 14:11:57:515
19.436279,0.340874,2.905364,19.436279,0.340874,2.905364,-4.360440,-8.233959,-3.059640,-0.023740,0.005039,0.001625,2014,10,7,14,11,57,0,2014-10-07 14:11:57:517
19.588310,-17.467497,-1.712902,19.436279,0.340874,2.905364,-4.360440,-8.233959,-3.059640,-0.023740,0.005039,0.001625,2014,10,7,14,11,57,0,2014-10-07 14:11:57:519
19.588310,-17.467497,-1.712902,23.947405,-9.277681,1.465102,-4.360440,-8.233959,-3.059640,-0.023740,0.005039,0.001625,2014,10,7,14,11,57,0,2014-10-07 14:11:57:528
23.947405,-9.277681,1.465102,23.947405,-9.277681,1.465102,-4.359093,-8.189816,-3.178004,-0.023740,0.005039,0.001625,2014,10,7,14,11,57,0,2014-10-07 14:11:57:530
23.947405,-9.277681,1.465102,23.947405,-9.277681,1.465102,-4.359093,-8.189816,-3.178004,2.100398,0.012496,9.655051,2014,10,7,14,11,57,0,2014-10-07 14:11:57:532
12.020838,-2.115876,5.110573,23.947405,-9.277681,1.465102,-4.359093,-8.189816,-3.178004,2.100398,0.012496,9.655051,2014,10,7,14,11,57,0,2014-10-07 14:11:57:534
12.020838,-2.115876,5.110573,19.383757,-8.593089,5.040543,-4.359093,-8.189816,-3.178004,2.100398,0.012496,9.655051,2014,10,7,14,11,57,0,2014-10-07 14:11:57:536
19.383757,-8.593089,5.040543,19.383757,-8.593089,5.040543,-7.362918,6.477213,0.070030,2.100398,0.012496,9.655051,2014,10,7,14,11,57,0,2014-10-07 14:11:57:538
19.383757,-8.593089,5.040543,19.383757,-8.593089,5.040543,-7.362918,6.477213,0.070030,-0.023863,0.005073,0.001635,2014,10,7,14,11,57,0,2014-10-07 14:11:57:597
5.084836,-13.754090,1.806575,19.383757,-8.593089,5.040543,-7.362918,6.477213,0.070030,-0.023863,0.005073,0.001635,2014,10,7,14,11,57,0,2014-10-07 14:11:57:599
5.084836,-13.754090,1.806575,12.447754,-20.231304,1.736544,-7.362918,6.477213,0.070030,-0.023863,0.005073,0.001635,2014,10,7,14,11,57,0,2014-10-07 14:11:57:604
12.447754,-20.231304,1.736544,12.447754,-20.231304,1.736544,-7.362918,6.477213,0.070030,-0.023863,0.005073,0.001635,2014,10,7,14,11,57,0,2014-10-07 14:11:57:610
12.447754,-20.231304,1.736544,12.447754,-20.231304,1.736544,-7.362918,6.477213,0.070030,-0.023822,0.005061,0.001631,2014,10,7,14,11,57,0,2014-10-07 14:11:57:612
17.458071,-7.114969,5.757008,12.447754,-20.231304,1.736544,-7.362918,6.477213,0.070030,-0.023822,0.005061,0.001631,2014,10,7,14,11,57,0,2014-10-07 14:11:57:614
17.458071,-7.114969,5.757008,20.570532,-12.588563,-1.761085,-7.362918,6.477213,0.070030,-0.023822,0.005061,0.001631,2014,10,7,14,11,57,0,2014-10-07 14:11:57:616
20.570532,-12.588563,-1.761085,20.570532,-12.588563,-1.761085,-3.112462,5.473594,7.518093,-0.023822,0.005061,0.001631,2014,10,7,14,11,57,0,2014-10-07 14:11:57:618
20.570532,-12.588563,-1.761085,20.570532,-12.588563,-1.761085,-3.112462,5.473594,7.518093,-0.023822,0.005061,0.001631,2014,10,7,14,11,57,0,2014-10-07 14:11:57:620
16.287306,-19.521723,5.721095,20.570532,-12.588563,-1.761085,-3.112462,5.473594,7.518093,-0.023822,0.005061,0.001631,2014,10,7,14,11,57,0,2014-10-07 14:11:57:622
16.287306,-19.521723,5.721095,19.416079,-24.900446,-1.858349,-3.112462,5.473594,7.518093,-0.023822,0.005061,0.001631,2014,10,7,14,11,57,0,2014-10-07 14:11:57:625
19.416079,-24.900446,-1.858349,19.416079,-24.900446,-1.858349,-3.128773,5.378724,7.579444,-0.023822,0.005061,0.001631,2014,10,7,14,11,57,0,2014-10-07 14:11:57:627
19.416079,-24.900446,-1.858349,19.416079,-24.900446,-1.858349,-3.128773,5.378724,7.579444,-0.023822,0.005061,0.001631,2014,10,7,14,11,57,0,2014-10-07 14:11:57:629
17.817200,-15.104420,6.065860,19.416079,-24.900446,-1.858349,-3.128773,5.378724,7.579444,-0.023822,0.005061,0.001631,2014,10,7,14,11,57,0,2014-10-07 14:11:57:631
17.817200,-15.104420,6.065860,20.962584,-20.387825,-1.573589,-3.128773,5.378724,7.579444,-0.023822,0.005061,0.001631,2014,10,7,14,11,57,0,2014-10-07 14:11:57:633
20.962584,-20.387825,-1.573589,20.962584,-20.387825,-1.573589,-3.145382,5.283405,7.639449,-0.023822,0.005061,0.001631,2014,10,7,14,11,57,0,2014-10-07 14:11:57:635
20.962584,-20.387825,-1.573589,20.962584,-20.387825,-1.573589,-3.145382,5.283405,7.639449,-0.023822,0.005061,0.001631,2014,10,7,14,11,57,0,2014-10-07 14:11:57:636
19.588310,-19.521723,9.985168,20.962584,-20.387825,-1.573589,-3.145382,5.283405,7.639449,-0.023822,0.005061,0.001631,2014,10,7,14,11,57,0,2014-10-07 14:11:57:638
19.588310,-19.521723,9.985168,22.750452,-24.708910,2.286911,-3.145382,5.283405,7.639449,-0.023822,0.005061,0.001631,2014,10,7,14,11,57,0,2014-10-07 14:11:57:640
22.750452,-24.708910,2.286911,22.750452,-24.708910,2.286911,-3.162142,5.187188,7.698256,-0.023822,0.005061,0.001631,2014,10,7,14,11,57,0,2014-10-07 14:11:57:642
22.750452,-24.708910,2.286911,22.750452,-24.708910,2.286911,-3.162142,5.187188,7.698256,-0.023822,0.005061,0.001631,2014,10,7,14,11,57,0,2014-10-07 14:11:57:645
19.093309,-19.521723,2.474557,22.750452,-24.708910,2.286911,-3.162142,5.187188,7.698256,-0.023822,0.005061,0.001631,2014,10,7,14,11,57,0,2014-10-07 14:11:57:646
19.093309,-19.521723,2.474557,22.272511,-24.611944,-5.281160,-3.162142,5.187188,7.698256,-0.023822,0.005061,0.001631,2014,10,7,14,11,57,0,2014-10-07 14:11:57:648
22.272511,-24.611944,-5.281160,22.272511,-24.611944,-5.281160,-3.179201,5.090222,7.755717,-0.023822,0.005061,0.001631,2014,10,7,14,11,57,0,2014-10-07 14:11:57:650
22.272511,-24.611944,-5.281160,22.272511,-24.611944,-5.281160,-3.179201,5.090222,7.755717,-0.023863,0.005073,0.001634,2014,10,7,14,11,57,0,2014-10-07 14:11:57:652
19.588310,-19.521723,9.681105,22.272511,-24.611944,-5.281160,-3.179201,5.090222,7.755717,-0.023863,0.005073,0.001634,2014,10,7,14,11,57,0,2014-10-07 14:11:57:654
19.588310,-19.521723,9.681105,22.784870,-24.514381,1.869273,-3.179201,5.090222,7.755717,-0.023863,0.005073,0.001634,2014,10,7,14,11,57,0,2014-10-07 14:11:57:656
22.784870,-24.514381,1.869273,22.784870,-24.514381,1.869273,-3.196558,4.992659,7.811831,-0.023863,0.005073,0.001634,2014,10,7,14,11,57,0,2014-10-07 14:11:57:658
22.784870,-24.514381,1.869273,22.784870,-24.514381,1.869273,-3.196558,4.992659,7.811831,-0.023863,0.005073,0.001634,2014,10,7,14,11,57,0,2014-10-07 14:11:57:661
17.611300,-19.521723,3.851223,22.784870,-24.514381,1.869273,-3.196558,4.992659,7.811831,-0.023863,0.005073,0.001634,2014,10,7,14,11,57,0,2014-10-07 14:11:57:662
17.611300,-19.521723,3.851223,20.825514,-24.415918,-4.015376,-3.196558,4.992659,7.811831,-0.023863,0.005073,0.001634,2014,10,7,14,11,57,0,2014-10-07 14:11:57:664
20.825514,-24.415918,-4.015376,20.825514,-24.415918,-4.015376,-3.214216,4.894197,7.866599,-0.023863,0.005073,0.001634,2014,10,7,14,11,57,0,2014-10-07 14:11:57:666
20.825514,-24.415918,-4.015376,20.825514,-24.415918,-4.015376,-3.214216,4.894197,7.866599,-0.023863,0.005073,0.001634,2014,10,7,14,11,57,0,2014-10-07 14:11:57:668
19.588310,-4.548385,2.668488,20.825514,-24.415918,-4.015376,-3.214216,4.894197,7.866599,-0.023863,0.005073,0.001634,2014,10,7,14,11,57,0,2014-10-07 14:11:57:670
19.588310,-4.548385,2.668488,22.820333,-9.343672,-5.251681,-3.214216,4.894197,7.866599,-0.023863,0.005073,0.001634,2014,10,7,14,11,57,0,2014-10-07 14:11:57:672
22.820333,-9.343672,-5.251681,22.820333,-9.343672,-5.251681,-3.232023,4.795287,7.920169,-0.023863,0.005073,0.001634,2014,10,7,14,11,57,0,2014-10-07 14:11:57:673
22.820333,-9.343672,-5.251681,22.820333,-9.343672,-5.251681,-3.232023,4.795287,7.920169,-0.023863,0.005073,0.001634,2014,10,7,14,11,57,0,2014-10-07 14:11:57:675
15.039927,-19.521723,1.708413,22.820333,-9.343672,-5.251681,-3.232023,4.795287,7.920169,-0.023863,0.005073,0.001634,2014,10,7,14,11,57,0,2014-10-07 14:11:57:678
15.039927,-19.521723,1.708413,18.289906,-24.217201,-6.263980,-3.232023,4.795287,7.920169,-0.023863,0.005073,0.001634,2014,10,7,14,11,57,0,2014-10-07 14:11:57:679
18.289906,-24.217201,-6.263980,18.289906,-24.217201,-6.263980,-3.249979,4.695478,7.972393,-0.023863,0.005073,0.001634,2014,10,7,14,11,57,0,2014-10-07 14:11:57:681
18.289906,-24.217201,-6.263980,18.289906,-24.217201,-6.263980,-3.249979,4.695478,7.972393,-0.023863,0.005073,0.001634,2014,10,7,14,11,57,0,2014-10-07 14:11:57:684
8.417564,-0.815824,2.072331,18.289906,-24.217201,-6.263980,-3.249979,4.695478,7.972393,-0.023863,0.005073,0.001634,2014,10,7,14,11,57,0,2014-10-07 14:11:57:686
8.417564,-0.815824,2.072331,11.685949,-5.411046,-5.950788,-3.249979,4.695478,7.972393,-0.023863,0.005073,0.001634,2014,10,7,14,11,57,0,2014-10-07 14:11:57:687
11.685949,-5.411046,-5.950788,11.685949,-5.411046,-5.950788,-3.268385,4.595221,8.023120,-0.023863,0.005073,0.001634,2014,10,7,14,11,57,0,2014-10-07 14:11:57:689
11.685949,-5.411046,-5.950788,11.685949,-5.411046,-5.950788,-3.268385,4.595221,8.023120,-0.023799,0.005055,0.001629,2014,10,7,14,11,57,0,2014-10-07 14:11:57:691
1.225382,-19.521723,6.530335,11.685949,-5.411046,-5.950788,-3.268385,4.595221,8.023120,-0.023799,0.005055,0.001629,2014,10,7,14,11,57,0,2014-10-07 14:11:57:693
1.225382,-19.521723,6.530335,3.301305,-23.957430,-1.965789,-3.268385,4.595221,8.023120,-0.023799,0.005055,0.001629,2014,10,7,14,11,57,0,2014-10-07 14:11:57:700
3.301305,-23.957430,-1.965789,3.301305,-23.957430,-1.965789,-2.075922,4.435708,8.496124,-0.023799,0.005055,0.001629,2014,10,7,14,11,57,0,2014-10-07 14:11:57:734
3.301305,-23.957430,-1.965789,3.301305,-23.957430,-1.965789,-2.075922,4.435708,8.496124,-0.023799,0.005055,0.001629,2014,10,7,14,11,57,0,2014-10-07 14:11:57:735
4.617966,3.555988,1.112256,3.301305,-23.957430,-1.965789,-2.075922,4.435708,8.496124,-0.023799,0.005055,0.001629,2014,10,7,14,11,57,0,2014-10-07 14:11:57:737
4.617966,3.555988,1.112256,6.713940,-0.771532,-7.434595,-2.075922,4.435708,8.496124,-0.023799,0.005055,0.001629,2014,10,7,14,11,57,0,2014-10-07 14:11:57:739
6.713940,-0.771532,-7.434595,6.713940,-0.771532,-7.434595,-2.095974,4.327519,8.546851,-0.023799,0.005055,0.001629,2014,10,7,14,11,57,0,2014-10-07 14:11:57:741
6.713940,-0.771532,-7.434595,6.713940,-0.771532,-7.434595,-2.095974,4.327519,8.546851,-0.023799,0.005055,0.001629,2014,10,7,14,11,57,0,2014-10-07 14:11:57:744
0.320374,-13.186665,2.081908,6.713940,-0.771532,-7.434595,-2.095974,4.327519,8.546851,-0.023799,0.005055,0.001629,2014,10,7,14,11,57,0,2014-10-07 14:11:57:746
0.320374,-13.186665,2.081908,1.688361,-17.824383,-6.449680,-2.095974,4.327519,8.546851,-0.023799,0.005055,0.001629,2014,10,7,14,11,57,0,2014-10-07 14:11:57:747
1.688361,-17.824383,-6.449680,1.688361,-17.824383,-6.449680,-1.367987,4.637718,8.531589,-0.023799,0.005055,0.001629,2014,10,7,14,11,57,0,2014-10-07 14:11:57:749
1.688361,-17.824383,-6.449680,1.688361,-17.824383,-6.449680,-1.367987,4.637718,8.531589,-0.023799,0.005055,0.001629,2014,10,7,14,11,57,0,2014-10-07 14:11:57:751
3.351434,2.239177,0.824952,1.688361,-17.824383,-6.449680,-1.367987,4.637718,8.531589,-0.023799,0.005055,0.001629,2014,10,7,14,11,57,0,2014-10-07 14:11:57:754
3.351434,2.239177,0.824952,4.756680,-0.541688,-8.473529,-1.367987,4.637718,8.531589,-0.023799,0.005055,0.001629,2014,10,7,14,11,57,0,2014-10-07 14:11:57:756
4.756680,-0.541688,-8.473529,4.756680,-0.541688,-8.473529,-1.405247,2.780865,9.298481,-0.023799,0.005055,0.001629,2014,10,7,14,11,57,0,2014-10-07 14:11:57:758
4.756680,-0.541688,-8.473529,4.756680,-0.541688,-8.473529,-1.405247,2.780865,9.298481,-0.023799,0.005055,0.001629,2014,10,7,14,11,57,0,2014-10-07 14:11:57:760
-8.581267,-11.362283,3.365200,4.756680,-0.541688,-8.473529,-1.405247,2.780865,9.298481,-0.023799,0.005055,0.001629,2014,10,7,14,11,57,0,2014-10-07 14:11:57:762
-8.581267,-11.362283,3.365200,-7.677008,-14.317924,-5.941511,-1.405247,2.780865,9.298481,-0.023799,0.005055,0.001629,2014,10,7,14,11,57,0,2014-10-07 14:11:57:764
-7.677008,-14.317924,-5.941511,-7.677008,-14.317924,-5.941511,-0.904260,2.955642,9.306711,-0.023799,0.005055,0.001629,2014,10,7,14,11,57,0,2014-10-07 14:11:57:766
-7.677008,-14.317924,-5.941511,-7.677008,-14.317924,-5.941511,-0.904260,2.955642,9.306711,-0.023840,0.005066,0.001633,2014,10,7,14,11,57,0,2014-10-07 14:11:57:768
4.744859,-3.485359,2.512864,-7.677008,-14.317924,-5.941511,-0.904260,2.955642,9.306711,-0.023840,0.005066,0.001633,2014,10,7,14,11,57,0,2014-10-07 14:11:57:769
4.744859,-3.485359,2.512864,6.910863,-4.536713,-6.993613,-0.904260,2.955642,9.306711,-0.023840,0.005066,0.001633,2014,10,7,14,11,57,0,2014-10-07 14:11:57:771
6.910863,-4.536713,-6.993613,6.910863,-4.536713,-6.993613,-2.166004,1.051354,9.506477,-0.023840,0.005066,0.001633,2014,10,7,14,11,57,0,2014-10-07 14:11:57:773
6.910863,-4.536713,-6.993613,6.910863,-4.536713,-6.993613,-2.166004,1.051354,9.506477,-0.023845,0.005068,0.001633,2014,10,7,14,11,57,0,2014-10-07 14:11:57:784
-5.588516,-13.497910,-0.566079,6.910863,-4.536713,-6.993613,-2.166004,1.051354,9.506477,-0.023845,0.005068,0.001633,2014,10,7,14,11,57,0,2014-10-07 14:11:57:786
-5.588516,-13.497910,-0.566079,-4.152144,-13.887716,-10.259005,-2.166004,1.051354,9.506477,-0.023845,0.005068,0.001633,2014,10,7,14,11,57,0,2014-10-07 14:11:57:788
-4.152144,-13.887716,-10.259005,-4.152144,-13.887716,-10.259005,-1.436371,0.389806,9.692925,-0.023845,0.005068,0.001633,2014,10,7,14,11,57,0,2014-10-07 14:11:57:799
-4.152144,-13.887716,-10.259005,-4.152144,-13.887716,-10.259005,-1.436371,0.389806,9.692925,-0.023828,0.005063,0.001632,2014,10,7,14,11,57,0,2014-10-07 14:11:57:805
5.305102,-8.156446,2.673276,-4.152144,-13.887716,-10.259005,-1.436371,0.389806,9.692925,-0.023828,0.005063,0.001632,2014,10,7,14,11,57,0,2014-10-07 14:11:57:806
5.305102,-8.156446,2.673276,7.562236,-6.416461,-6.710050,-1.436371,0.389806,9.692925,-0.023828,0.005063,0.001632,2014,10,7,14,11,57,0,2014-10-07 14:11:57:839
7.562236,-6.416461,-6.710050,7.562236,-6.416461,-6.710050,-2.257134,-1.739986,9.383326,-0.023828,0.005063,0.001632,2014,10,7,14,11,57,0,2014-10-07 14:11:57:855
7.562236,-6.416461,-6.710050,7.562236,-6.416461,-6.710050,-2.257134,-1.739986,9.383326,-0.023828,0.005063,0.001632,2014,10,7,14,11,57,0,2014-10-07 14:11:57:857
-1.350779,-18.552071,-7.229142,7.562236,-6.416461,-6.710050,-2.257134,-1.739986,9.383326,-0.023828,0.005063,0.001632,2014,10,7,14,11,57,0,2014-10-07 14:11:57:859
-1.350779,-18.552071,-7.229142,0.018405,-15.577424,-16.472857,-2.257134,-1.739986,9.383326,-0.023828,0.005063,0.001632,2014,10,7,14,11,57,0,2014-10-07 14:11:57:870
0.018405,-15.577424,-16.472857,0.018405,-15.577424,-16.472857,-1.369184,-2.974646,9.243713,-0.023828,0.005063,0.001632,2014,10,7,14,11,57,0,2014-10-07 14:11:57:872
0.018405,-15.577424,-16.472857,0.018405,-15.577424,-16.472857,-1.369184,-2.974646,9.243713,-0.023828,0.005063,0.001632,2014,10,7,14,11,57,0,2014-10-07 14:11:57:875
6.193351,-9.006389,1.598279,0.018405,-15.577424,-16.472857,-1.369184,-2.974646,9.243713,-0.023828,0.005063,0.001632,2014,10,7,14,11,57,0,2014-10-07 14:11:57:883
6.193351,-9.006389,1.598279,7.591116,-5.913978,-7.602339,-1.369184,-2.974646,9.243713,-0.023828,0.005063,0.001632,2014,10,7,14,11,57,0,2014-10-07 14:11:57:885
7.591116,-5.913978,-7.602339,7.591116,-5.913978,-7.602339,-1.397765,-3.092411,9.200618,-0.023828,0.005063,0.001632,2014,10,7,14,11,57,0,2014-10-07 14:11:57:886
7.591116,-5.913978,-7.602339,7.591116,-5.913978,-7.602339,-1.397765,-3.092411,9.200618,-0.023881,0.005078,0.001636,2014,10,7,14,11,57,0,2014-10-07 14:11:57:890
19.588310,-19.521723,4.404284,7.591116,-5.913978,-7.602339,-1.397765,-3.092411,9.200618,-0.023881,0.005078,0.001636,2014,10,7,14,11,57,0,2014-10-07 14:11:57:892
19.588310,-19.521723,4.404284,19.996672,-15.183129,-4.380940,-1.397765,-3.092411,9.200618,-0.023881,0.005078,0.001636,2014,10,7,14,11,57,0,2014-10-07 14:11:57:899
19.996672,-15.183129,-4.380940,19.996672,-15.183129,-4.380940,-0.408361,-4.338593,8.785224,-0.023881,0.005078,0.001636,2014,10,7,14,11,57,0,2014-10-07 14:11:57:902
19.996672,-15.183129,-4.380940,19.996672,-15.183129,-4.380940,-0.408361,-4.338593,8.785224,-0.023881,0.005078,0.001636,2014,10,7,14,11,57,0,2014-10-07 14:11:57:903
8.297854,-1.495777,5.235072,19.996672,-15.183129,-4.380940,-0.408361,-4.338593,8.785224,-0.023881,0.005078,0.001636,2014,10,7,14,11,57,0,2014-10-07 14:11:57:907
8.297854,-1.495777,5.235072,8.734796,2.955492,-3.492242,-0.408361,-4.338593,8.785224,-0.023881,0.005078,0.001636,2014,10,7,14,11,57,0,2014-10-07 14:11:57:916
8.734796,2.955492,-3.492242,8.734796,2.955492,-3.492242,-0.436942,-4.451270,8.727314,-0.023881,0.005078,0.001636,2014,10,7,14,11,57,0,2014-10-07 14:11:57:918
8.734796,2.955492,-3.492242,8.734796,2.955492,-3.492242,-0.436942,-4.451270,8.727314,-0.023881,0.005078,0.001636,2014,10,7,14,11,57,0,2014-10-07 14:11:57:919
0.291644,3.017293,10.174310,8.734796,2.955492,-3.492242,-0.436942,-4.451270,8.727314,-0.023881,0.005078,0.001636,2014,10,7,14,11,57,0,2014-10-07 14:11:57:923
0.291644,3.017293,10.174310,-0.521337,7.421875,1.450288,-0.436942,-4.451270,8.727314,-0.023881,0.005078,0.001636,2014,10,7,14,11,57,0,2014-10-07 14:11:57:925
-0.521337,7.421875,1.450288,-0.521337,7.421875,1.450288,0.812981,-4.404583,8.724022,-0.023881,0.005078,0.001636,2014,10,7,14,11,57,0,2014-10-07 14:11:57:932
-0.521337,7.421875,1.450288,-0.521337,7.421875,1.450288,0.812981,-4.404583,8.724022,-0.023881,0.005078,0.001636,2014,10,7,14,11,57,0,2014-10-07 14:11:57:934
0.282067,2.428319,9.310003,-0.521337,7.421875,1.450288,0.812981,-4.404583,8.724022,-0.023881,0.005078,0.001636,2014,10,7,14,11,57,0,2014-10-07 14:11:57:937
0.282067,2.428319,9.310003,-0.449960,5.940613,0.183306,0.812981,-4.404583,8.724022,-0.023881,0.005078,0.001636,2014,10,7,14,11,57,0,2014-10-07 14:11:57:940
-0.449960,5.940613,0.183306,-0.449960,5.940613,0.183306,0.732027,-3.512294,9.126697,-0.023881,0.005078,0.001636,2014,10,7,14,11,57,0,2014-10-07 14:11:57:941
-0.449960,5.940613,0.183306,-0.449960,5.940613,0.183306,0.732027,-3.512294,9.126697,-0.119755,0.087103,-0.029257,2014,10,7,14,11,57,0,2014-10-07 14:11:57:951
0.401777,2.488174,9.657163,-0.449960,5.940613,0.183306,0.732027,-3.512294,9.126697,-0.119755,0.087103,-0.029257,2014,10,7,14,11,57,0,2014-10-07 14:11:57:953
0.401777,2.488174,9.657163,-0.322170,5.500828,0.352995,0.732027,-3.512294,9.126697,-0.119755,0.087103,-0.029257,2014,10,7,14,11,57,0,2014-10-07 14:11:57:956
-0.322170,5.500828,0.352995,-0.322170,5.500828,0.352995,0.723947,-3.012654,9.304167,-0.119755,0.087103,-0.029257,2014,10,7,14,11,57,0,2014-10-07 14:11:57:958
-0.322170,5.500828,0.352995,-0.322170,5.500828,0.352995,0.723947,-3.012654,9.304167,0.055920,-0.044964,-0.002618,2014,10,7,14,11,57,0,2014-10-07 14:11:57:965
0.365864,2.744354,9.396194,-0.322170,5.500828,0.352995,0.723947,-3.012654,9.304167,0.055920,-0.044964,-0.002618,2014,10,7,14,11,57,0,2014-10-07 14:11:57:967
0.365864,2.744354,9.396194,-0.264859,4.979491,-0.131382,0.723947,-3.012654,9.304167,0.055920,-0.044964,-0.002618,2014,10,7,14,11,57,0,2014-10-07 14:11:57:969
-0.264859,4.979491,-0.131382,-0.264859,4.979491,-0.131382,0.630723,-2.235137,9.527576,0.055920,-0.044964,-0.002618,2014,10,7,14,11,57,0,2014-10-07 14:11:57:972
-0.264859,4.979491,-0.131382,-0.264859,4.979491,-0.131382,0.630723,-2.235137,9.527576,0.062235,-0.033225,0.009106,2014,10,7,14,11,57,0,2014-10-07 14:11:57:975
1.091307,2.785055,9.752931,-0.264859,4.979491,-0.131382,0.630723,-2.235137,9.527576,0.062235,-0.033225,0.009106,2014,10,7,14,11,57,0,2014-10-07 14:11:57:982
1.091307,2.785055,9.752931,0.462979,4.391714,0.099210,0.630723,-2.235137,9.527576,0.062235,-0.033225,0.009106,2014,10,7,14,11,57,0,2014-10-07 14:11:57:985
0.462979,4.391714,0.099210,0.462979,4.391714,0.099210,0.628328,-1.606659,9.653721,0.062235,-0.033225,0.009106,2014,10,7,14,11,57,0,2014-10-07 14:11:57:988
0.462979,4.391714,0.099210,0.462979,4.391714,0.099210,0.628328,-1.606659,9.653721,0.798333,-0.027898,-0.164532,2014,10,7,14,11,57,0,2014-10-07 14:11:57:990
0.792032,1.971027,9.535058,0.462979,4.391714,0.099210,0.628328,-1.606659,9.653721,0.798333,-0.027898,-0.164532,2014,10,7,14,11,57,0,2014-10-07 14:11:57:999
0.792032,1.971027,9.535058,-0.057012,3.015796,-0.178667,0.628328,-1.606659,9.653721,0.798333,-0.027898,-0.164532,2014,10,7,14,11,58,0,2014-10-07 14:11:58:2
-0.057012,3.015796,-0.178667,-0.057012,3.015796,-0.178667,0.849044,-1.044770,9.713725,0.798333,-0.027898,-0.164532,2014,10,7,14,11,58,0,2014-10-07 14:11:58:5
-0.057012,3.015796,-0.178667,-0.057012,3.015796,-0.178667,0.849044,-1.044770,9.713725,-0.074277,0.061627,0.035751,2014,10,7,14,11,58,0,2014-10-07 14:11:58:7
0.576554,1.949479,9.621249,-0.057012,3.015796,-0.178667,0.849044,-1.044770,9.713725,-0.074277,0.061627,0.035751,2014,10,7,14,11,58,0,2014-10-07 14:11:58:15
0.576554,1.949479,9.621249,-0.286855,2.549525,-0.128838,0.849044,-1.044770,9.713725,-0.074277,0.061627,0.035751,2014,10,7,14,11,58,0,2014-10-07 14:11:58:16
-0.286855,2.549525,-0.128838,-0.286855,2.549525,-0.128838,0.849044,-1.044770,9.713725,0.132384,-0.069400,0.001662,2014,10,7,14,11,58,0,2014-10-07 14:11:58:500
0.825551,1.698088,9.755324,-0.286855,2.549525,-0.128838,0.849044,-1.044770,9.713725,0.132384,-0.069400,0.001662,2014,10,7,14,11,58,0,2014-10-07 14:11:58:503
0.825551,1.698088,9.755324,-0.041599,1.861342,-0.011522,0.849044,-1.044770,9.713725,0.132384,-0.069400,0.001662,2014,10,7,14,11,58,0,2014-10-07 14:11:58:505
-0.041599,1.861342,-0.011522,-0.041599,1.861342,-0.011522,0.867150,-0.163255,9.766847,0.132384,-0.069400,0.001662,2014,10,7,14,11,58,0,2014-10-07 14:11:58:512
-0.041599,1.861342,-0.011522,-0.041599,1.861342,-0.011522,0.867150,-0.163255,9.766847,-0.151188,0.089383,0.022984,2014,10,7,14,11,59,0,2014-10-07 14:11:59:1
-0.021997,4.575918,9.666739,-0.041599,1.861342,-0.011522,0.867150,-0.163255,9.766847,-0.151188,0.089383,0.022984,2014,10,7,14,11,59,0,2014-10-07 14:11:59:3
-0.021997,4.575918,9.666739,-0.942268,4.436605,-0.095618,0.867150,-0.163255,9.766847,-0.151188,0.089383,0.022984,2014,10,7,14,11,59,0,2014-10-07 14:11:59:13
-0.942268,4.436605,-0.095618,-0.942268,4.436605,-0.095618,0.920271,0.139313,9.762358,-0.151188,0.089383,0.022984,2014,10,7,14,11,59,0,2014-10-07 14:11:59:17
-0.942268,4.436605,-0.095618,-0.942268,4.436605,-0.095618,0.920271,0.139313,9.762358,0.053342,0.119210,0.010201,2014,10,7,14,11,59,0,2014-10-07 14:11:59:501
0.516699,1.712453,9.434502,-0.942268,4.436605,-0.095618,0.920271,0.139313,9.762358,0.053342,0.119210,0.010201,2014,10,7,14,11,59,0,2014-10-07 14:11:59:509
0.516699,1.712453,9.434502,-0.267851,0.730232,-0.291195,0.920271,0.139313,9.762358,0.053342,0.119210,0.010201,2014,10,7,14,11,59,0,2014-10-07 14:11:59:511
-0.267851,0.730232,-0.291195,-0.267851,0.730232,-0.291195,0.784550,0.982221,9.725697,0.053342,0.119210,0.010201,2014,10,7,14,11,59,0,2014-10-07 14:11:59:514
-0.267851,0.730232,-0.291195,-0.267851,0.730232,-0.291195,0.784550,0.982221,9.725697,-0.710646,0.073457,0.168941,2014,10,7,14,11,59,0,2014-10-07 14:11:59:999
0.662745,2.227206,9.709835,-0.267851,0.730232,-0.291195,0.784550,0.982221,9.725697,-0.710646,0.073457,0.168941,2014,10,7,14,12,0,0,2014-10-07 14:12:00:7
0.662745,2.227206,9.709835,-0.026935,1.277157,-0.026187,0.784550,0.982221,9.725697,-0.710646,0.073457,0.168941,2014,10,7,14,12,0,0,2014-10-07 14:12:00:9
-0.026935,1.277157,-0.026187,-0.026935,1.277157,-0.026187,0.689680,0.950049,9.736021,-0.710646,0.073457,0.168941,2014,10,7,14,12,0,0,2014-10-07 14:12:00:10
-0.026935,1.277157,-0.026187,-0.026935,1.277157,-0.026187,0.689680,0.950049,9.736021,0.041431,0.006346,-0.003632,2014,10,7,14,12,0,0,2014-10-07 14:12:00:544
0.760907,2.272696,9.439290,-0.026935,1.277157,-0.026187,0.689680,0.950049,9.736021,0.041431,0.006346,-0.003632,2014,10,7,14,12,0,0,2014-10-07 14:12:00:556
0.760907,2.272696,9.439290,-0.025139,1.202787,-0.276979,0.689680,0.950049,9.736021,0.041431,0.006346,-0.003632,2014,10,7,14,12,0,0,2014-10-07 14:12:00:570
-0.025139,1.202787,-0.276979,-0.025139,1.202787,-0.276979,0.786046,1.069909,9.716269,0.041431,0.006346,-0.003632,2014,10,7,14,12,0,0,2014-10-07 14:12:00:572
-0.025139,1.202787,-0.276979,-0.025139,1.202787,-0.276979,0.786046,1.069909,9.716269,0.028430,-0.044727,-0.012137,2014,10,7,14,12,1,0,2014-10-07 14:12:01:0
0.902165,2.073977,9.635614,-0.025139,1.202787,-0.276979,0.786046,1.069909,9.716269,0.028430,-0.044727,-0.012137,2014,10,7,14,12,1,0,2014-10-07 14:12:01:4
0.902165,2.073977,9.635614,0.205004,0.773178,-0.059256,0.786046,1.069909,9.716269,0.028430,-0.044727,-0.012137,2014,10,7,14,12,1,0,2014-10-07 14:12:01:6
0.205004,0.773178,-0.059256,0.205004,0.773178,-0.059256,0.697162,1.300800,9.694871,0.028430,-0.044727,-0.012137,2014,10,7,14,12,1,0,2014-10-07 14:12:01:8
0.205004,0.773178,-0.059256,0.205004,0.773178,-0.059256,0.697162,1.300800,9.694871,-0.005659,-0.014900,0.025147,2014,10,7,14,12,1,0,2014-10-07 14:12:01:505
0.744148,1.956661,9.535058,0.205004,0.773178,-0.059256,0.697162,1.300800,9.694871,-0.005659,-0.014900,0.025147,2014,10,7,14,12,1,0,2014-10-07 14:12:01:507
0.744148,1.956661,9.535058,-0.089184,0.563685,-0.136170,0.697162,1.300800,9.694871,-0.005659,-0.014900,0.025147,2014,10,7,14,12,1,0,2014-10-07 14:12:01:515
-0.089184,0.563685,-0.136170,-0.089184,0.563685,-0.136170,0.833332,1.392977,9.671228,-0.005659,-0.014900,0.025147,2014,10,7,14,12,1,0,2014-10-07 14:12:01:517
-0.089184,0.563685,-0.136170,-0.089184,0.563685,-0.136170,0.833332,1.392977,9.671228,-0.002598,-0.008471,0.021962,2014,10,7,14,12,1,0,2014-10-07 14:12:01:998
0.837522,1.896806,9.621249,-0.089184,0.563685,-0.136170,0.833332,1.392977,9.671228,-0.002598,-0.008471,0.021962,2014,10,7,14,12,2,0,2014-10-07 14:12:02:1
0.837522,1.896806,9.621249,0.041300,0.368707,-0.032771,0.833332,1.392977,9.671228,-0.002598,-0.008471,0.021962,2014,10,7,14,12,2,0,2014-10-07 14:12:02:4
0.041300,0.368707,-0.032771,0.041300,0.368707,-0.032771,0.796222,1.528099,9.654019,-0.002598,-0.008471,0.021962,2014,10,7,14,12,2,0,2014-10-07 14:12:02:7
0.041300,0.368707,-0.032771,0.041300,0.368707,-0.032771,0.796222,1.528099,9.654019,-0.000468,-0.010602,0.033680,2014,10,7,14,12,2,0,2014-10-07 14:12:02:498
0.880617,2.071583,9.709835,0.041300,0.368707,-0.032771,0.796222,1.528099,9.654019,-0.000468,-0.010602,0.033680,2014,10,7,14,12,2,0,2014-10-07 14:12:02:501
0.880617,2.071583,9.709835,0.002245,0.531662,0.064793,0.796222,1.528099,9.654019,-0.000468,-0.010602,0.033680,2014,10,7,14,12,2,0,2014-10-07 14:12:02:508
0.002245,0.531662,0.064793,0.002245,0.531662,0.064793,0.878373,1.539921,9.645041,-0.000468,-0.010602,0.033680,2014,10,7,14,12,2,0,2014-10-07 14:12:02:517
0.002245,0.531662,0.064793,0.002245,0.531662,0.064793,0.878373,1.539921,9.645041,0.012092,0.007570,-0.018500,2014,10,7,14,12,2,0,2014-10-07 14:12:02:998
0.926107,1.451485,10.009109,0.002245,0.531662,0.064793,0.878373,1.539921,9.645041,0.012092,0.007570,-0.018500,2014,10,7,14,12,3,0,2014-10-07 14:12:03:0
0.926107,1.451485,10.009109,0.023643,-0.164601,0.378882,0.878373,1.539921,9.645041,0.012092,0.007570,-0.018500,2014,10,7,14,12,3,0,2014-10-07 14:12:03:2
0.023643,-0.164601,0.378882,0.023643,-0.164601,0.378882,0.902464,1.616086,9.630227,0.012092,0.007570,-0.018500,2014,10,7,14,12,3,0,2014-10-07 14:12:03:4
